#XDI/1.1  GSE/1.0
# Column.1: energy eV
# Column.2: itrans
# Column.3: i0
# Scan.end_time: 2008-04-10 18:04:53
# Scan.start_time: 2008-04-10 17:47:11
# Element.symbol:  Se
# Element.edge:  K
# Facility.Name:  APS
# Beamline.Name:  13-BM-D
# Beamline.xray_source:  bending magnet
# Mono.d_spacing:  3.13555
# Mono.name: Si 111
# Beamline.Storage_Ring_Current: 102.092 || S:SRcurrentAI.VAL
# Beamline.FOE_Mono_angle_readback: 9.0947 || 13BMA:m17.RBV
# Beamline.Mono_Energy_drive_val: 12508.0000 || 13BMA:E:Energy.VAL
# Beamline.Mono_Energy_readback: 12503.0923 || 13BMA:E:E_RBV
# Beamline.Mono_Beam_Offset: 20.0000 || 13BMA:E:height.VAL
# Beamline.I0_sensitivity_value: 5 || 13BMD:A3sens_num.VAL
# Beamline.I0_sensitivity_value: nA/V || 13BMD:A3sens_unit.VAL
# Beamline.I1_sensitivity_value: 20 || 13BMD:A2sens_num.VAL
# Beamline.I1_sensitivity_value: nA/V || 13BMD:A2sens_unit.VAL
# Beamline.FOE_Mono_Yout: 10.4439 || 13BMA:m10.VAL
# Beamline.FOE_Mono_Yin: 10.6474 || 13BMA:m11.VAL
# Beamline.FOE_Mono_Yup: 9.7047 || 13BMA:m12.VAL
# Beamline.FOE_Mono_Cage_Y: 0.000 || 13BMA:m13.VAL
# Beamline.FOE_Mono_Z: 64.134 || 13BMA:m14.VAL
# Beamline.FOE_Mono_angle: 9.0947 || 13BMA:m17.VAL
# Beamline.BMD_Horiz_Width: 5.000 || 13BMD:BMDHt2.C
# Beamline.BMD_Horiz_Center: -2.000 || 13BMD:BMDHt2.D
# Beamline.BMD_Vertical_Width: 0.500 || 13BMD:BMDVt2.C
# Beamline.BMD_Vertical_Center: -19.950 || 13BMD:BMDVt2.D
# Beamline.Sample_X: 326.174 || 13BMD:m70.VAL
# Beamline.Sample_Z__focus: 49.002 || 13BMD:m33.VAL
# Beamline.Sample_Y__height: 34.700 || 13BMD:m34.VAL
# ScanParameters.Start: Scan.Member: Value
# ScanParameters.E0: 12658.0
# ScanParameters.Legend: Start       Stop       Step       Npts       Time   Kspace?
# ScanParameters.Region1: -150.00    -10.000     5.0000     29.000     2.0000   0
# ScanParameters.Region2: -10.000     30.000    0.25000     161.00     2.0000   0
# ScanParameters.Region3: 2.8061     14.000   0.039978     281.00     2.0000   1
# ScanParameters.End: here
#-------------------------
#  energy  itrans  i0
   12508.000   354779.40    122183.40 
   12513.000   351049.40    120743.40 
   12518.000   349876.40    120170.40 
   12523.000   348921.40    119677.40 
   12528.000   347766.40    119186.40 
   12533.000   346763.40    118726.40 
   12538.000   347236.40    118722.40 
   12543.000   349115.40    119211.40 
   12548.000   349784.40    119308.40 
   12553.000   350059.40    119279.40 
   12558.000   350707.40    119337.40 
   12563.000   351207.40    119385.40 
   12568.000   351126.40    119212.40 
   12573.000   350891.40    119025.40 
   12578.000   352110.40    119307.40 
   12583.000   352742.40    119372.40 
   12588.000   351654.40    118896.40 
   12593.000   353201.40    119273.40 
   12598.000   353921.40    119405.40 
   12603.000   354108.40    119380.40 
   12608.000   354031.40    119249.40 
   12613.000   353415.40    118951.40 
   12618.000   353977.40    119065.40 
   12623.000   354678.40    119264.40 
   12628.000   354465.40    119205.40 
   12633.000   353860.40    119097.40 
   12638.000   353213.40    119087.40 
   12643.000   351739.40    119184.40 
   12648.000   346550.40    119126.40 
   12648.250   346805.40    119416.40 
   12648.500   346370.40    119487.40 
   12648.750   345987.40    119492.40 
   12649.000   345080.40    119455.40 
   12649.250   344831.40    119487.40 
   12649.500   344229.40    119605.40 
   12649.750   343556.40    119589.40 
   12650.000   342607.40    119581.40 
   12650.250   341223.40    119469.40 
   12650.500   340293.40    119455.40 
   12650.750   339183.40    119524.40 
   12651.000   337874.40    119454.40 
   12651.250   335935.40    119382.40 
   12651.500   333856.40    119345.40 
   12651.750   332448.40    119436.40 
   12652.000   329834.40    119463.40 
   12652.250   328441.40    119738.40 
   12652.500   325483.40    120003.40 
   12652.750   322315.40    119951.40 
   12653.000   317421.40    119928.40 
   12653.250   310992.40    119862.40 
   12653.500   305975.40    119873.40 
   12653.750   297309.40    119691.40 
   12654.000   289833.40    119765.40 
   12654.250   278681.40    119829.40 
   12654.500   266365.40    120073.40 
   12654.750   255699.40    120186.40 
   12655.000   240113.40    120200.40 
   12655.250   227934.40    120122.40 
   12655.500   213026.40    120057.40 
   12655.750   203162.40    120028.40 
   12656.000   192603.40    119964.40 
   12656.250   186628.40    119837.40 
   12656.500   185238.40    119862.40 
   12656.750   187048.40    119785.40 
   12657.000   190203.40    119762.40 
   12657.250   196905.40    119823.40 
   12657.500   202981.40    119936.40 
   12657.750   210789.40    119897.40 
   12658.000   217856.40    119832.40 
   12658.250   222859.40    119740.40 
   12658.500   228468.40    119795.40 
   12658.750   231629.40    119855.40 
   12659.000   234344.40    119827.40 
   12659.250   235506.40    119769.40 
   12659.500   235265.40    119740.40 
   12659.750   233692.40    119645.40 
   12660.000   231919.40    119679.40 
   12660.250   228272.40    119582.40 
   12660.500   225307.40    119599.40 
   12660.750   220825.40    119624.40 
   12661.000   216347.40    119635.40 
   12661.250   213019.40    119630.40 
   12661.500   208850.40    119641.40 
   12661.750   205983.40    119682.40 
   12662.000   202324.40    119591.40 
   12662.250   199863.40    119563.40 
   12662.500   196787.40    119571.40 
   12662.750   193834.40    119524.40 
   12663.000   191992.40    119559.40 
   12663.250   189547.40    119558.40 
   12663.500   188063.40    119612.40 
   12663.750   186056.40    119551.40 
   12664.000   184522.40    119553.40 
   12664.250   183550.40    119544.40 
   12664.500   182485.40    119555.40 
   12664.750   181852.40    119539.40 
   12665.000   181269.40    119506.40 
   12665.250   180946.40    119478.40 
   12665.500   180817.40    119524.40 
   12665.750   181737.40    120068.40 
   12666.000   182018.40    120141.40 
   12666.250   182354.40    120079.40 
   12666.500   182950.40    120153.40 
   12666.750   183700.40    120124.40 
   12667.000   184307.40    120064.40 
   12667.250   185418.40    120061.40 
   12667.500   186628.40    120057.40 
   12667.750   187663.40    120132.40 
   12668.000   188859.40    120013.40 
   12668.250   189611.40    119865.40 
   12668.500   190967.40    119865.40 
   12668.750   191993.40    119888.40 
   12669.000   193497.40    119957.40 
   12669.250   195086.40    120021.40 
   12669.500   196106.40    120029.40 
   12669.750   197361.40    119962.40 
   12670.000   198425.40    119929.40 
   12670.250   199794.40    119906.40 
   12670.500   200950.40    119970.40 
   12670.750   202497.40    120034.40 
   12671.000   203493.40    119896.40 
   12671.250   204416.40    119842.40 
   12671.500   205518.40    119775.40 
   12671.750   206467.40    119847.40 
   12672.000   207535.40    119859.40 
   12672.250   208198.40    119821.40 
   12672.500   209110.40    119828.40 
   12672.750   209850.40    119814.40 
   12673.000   210471.40    119844.40 
   12673.250   211260.40    119867.40 
   12673.500   211662.40    119825.40 
   12673.750   212296.40    119832.40 
   12674.000   212646.40    119788.40 
   12674.250   213174.40    119748.40 
   12674.500   213755.40    119699.40 
   12674.750   214210.40    119723.40 
   12675.000   214999.40    119813.40 
   12675.250   215396.40    119777.40 
   12675.500   215798.40    119679.40 
   12675.750   216071.40    119613.40 
   12676.000   216598.40    119639.40 
   12676.250   216956.40    119617.40 
   12676.500   217252.40    119625.40 
   12676.750   217445.40    119521.40 
   12677.000   217910.40    119638.40 
   12677.250   218323.40    119693.40 
   12677.500   218544.40    119735.40 
   12677.750   218873.40    119758.40 
   12678.000   219034.40    119759.40 
   12678.250   219106.40    119713.40 
   12678.500   219253.40    119685.40 
   12678.750   219411.40    119676.40 
   12679.000   220551.40    120161.40 
   12679.250   220739.40    120175.40 
   12679.500   220946.40    120191.40 
   12679.750   221084.40    120188.40 
   12680.000   221269.40    120173.40 
   12680.250   221295.40    120097.40 
   12680.500   221378.40    120080.40 
   12680.750   221391.40    119997.40 
   12681.000   221418.40    120006.40 
   12681.250   221560.40    120036.40 
   12681.500   221649.40    120082.40 
   12681.750   221802.40    120148.40 
   12682.000   221641.40    120098.40 
   12682.250   221539.40    120097.40 
   12682.500   221369.40    120080.40 
   12682.750   221082.40    119968.40 
   12683.000   220964.40    120001.40 
   12683.250   220906.40    120059.40 
   12683.500   220543.40    120000.40 
   12683.750   220185.40    119940.40 
   12684.000   219867.40    119905.40 
   12684.250   219537.40    119919.40 
   12684.500   219483.40    120004.40 
   12684.750   219022.40    119967.40 
   12685.000   218751.40    119963.40 
   12685.250   218274.40    119870.40 
   12685.500   217997.40    119881.40 
   12685.750   217762.40    119953.40 
   12686.000   217407.40    119931.40 
   12686.250   217065.40    119879.40 
   12686.500   216418.40    119735.40 
   12686.750   216131.40    119715.40 
   12687.000   215686.40    119632.40 
   12687.250   215485.40    119645.40 
   12687.500   215218.40    119689.40 
   12687.750   215074.40    119775.40 
   12688.000   214760.40    119758.40 
   12688.860   213785.40    119704.40 
   12689.730   212899.40    119628.40 
   12690.620   212244.40    119540.40 
   12691.520   212322.40    119673.40 
   12692.430   212379.40    119701.40 
   12693.350   212502.40    119669.40 
   12694.280   212908.40    119684.40 
   12695.230   213143.40    119546.40 
   12696.190   213228.40    119294.40 
   12697.160   213668.40    119288.40 
   12698.140   215246.40    119875.40 
   12699.130   215972.40    119805.40 
   12700.140   216362.40    119654.40 
   12701.160   216838.40    119485.40 
   12702.190   217434.40    119404.40 
   12703.240   218436.40    119504.40 
   12704.290   220186.40    119941.40 
   12705.360   221524.40    120211.40 
   12706.440   222274.40    120190.40 
   12707.530   223130.40    120186.40 
   12708.640   223648.40    120032.40 
   12709.750   224028.40    120001.40 
   12710.880   224275.40    120017.40 
   12712.020   224146.40    120066.40 
   12713.180   223988.40    120176.40 
   12714.340   223316.40    120148.40 
   12715.520   222670.40    120039.40 
   12716.710   222234.40    120002.40 
   12717.910   221905.40    119939.40 
   12719.130   221990.40    120006.40 
   12720.350   222230.40    120075.40 
   12721.590   222179.40    120055.40 
   12722.840   222023.40    119943.40 
   12724.100   221685.40    119825.40 
   12725.380   221542.40    119906.40 
   12726.670   221311.40    119955.40 
   12727.960   220736.40    119928.40 
   12729.280   220446.40    119990.40 
   12730.600   219935.40    119947.40 
   12731.940   219516.40    119987.40 
   12733.280   219053.40    119951.40 
   12734.640   218395.40    119815.40 
   12736.020   218225.40    119858.40 
   12737.400   218022.40    119859.40 
   12738.800   217525.40    119680.40 
   12740.210   217181.40    119556.40 
   12741.630   218764.40    120443.40 
   12743.060   218409.40    120191.40 
   12744.510   218240.40    119962.40 
   12745.960   218633.40    119909.40 
   12747.430   219082.40    119811.40 
   12748.920   219817.40    119798.40 
   12750.410   220417.40    119757.40 
   12751.920   220914.40    119625.40 
   12753.440   221754.40    119714.40 
   12754.970   222258.40    119665.40 
   12756.510   222838.40    119647.40 
   12758.060   223366.40    119646.40 
   12759.630   224197.40    119715.40 
   12761.210   224901.40    119769.40 
   12762.800   225642.40    119729.40 
   12764.410   226286.40    119761.40 
   12766.020   226654.40    119621.40 
   12767.650   226843.40    119578.40 
   12769.290   227103.40    119591.40 
   12770.940   226693.40    119407.40 
   12772.610   225862.40    118962.40 
   12774.290   227631.40    120044.40 
   12775.970   227171.40    119885.40 
   12777.680   226760.40    119788.40 
   12779.390   226227.40    119632.40 
   12781.110   225728.40    119547.40 
   12782.850   225547.40    119568.40 
   12784.600   225327.40    119583.40 
   12786.360   224982.40    119520.40 
   12788.140   224524.40    119442.40 
   12789.920   224430.40    119574.40 
   12791.720   224138.40    119564.40 
   12793.540   223681.40    119544.40 
   12795.360   223176.40    119489.40 
   12797.190   222708.40    119382.40 
   12799.040   222186.40    119252.40 
   12800.900   222112.40    119276.40 
   12802.770   221145.40    118691.40 
   12804.660   223642.40    119983.40 
   12806.550   223153.40    119674.40 
   12808.460   223053.40    119562.40 
   12810.380   222960.40    119465.40 
   12812.310   222936.40    119389.40 
   12814.260   223187.40    119333.40 
   12816.210   223753.40    119402.40 
   12818.180   224347.40    119332.40 
   12820.170   224917.40    119271.40 
   12822.160   225634.40    119177.40 
   12824.170   226862.40    119310.40 
   12826.180   227736.40    119305.40 
   12828.210   228588.40    119273.40 
   12830.250   229292.40    119292.40 
   12832.310   229808.40    119266.40 
   12834.380   230100.40    119262.40 
   12836.460   230341.40    119296.40 
   12838.550   229881.40    118999.40 
   12840.650   230382.40    119215.40 
   12842.760   231052.40    119564.40 
   12844.890   230794.40    119461.40 
   12847.030   230375.40    119250.40 
   12849.180   230235.40    119215.40 
   12851.350   230108.40    119129.40 
   12853.520   230124.40    119143.40 
   12855.710   228618.40    118341.40 
   12857.910   231239.40    119700.40 
   12860.130   230557.40    119389.40 
   12862.350   230437.40    119319.40 
   12864.590   230152.40    119251.40 
   12866.840   229353.40    118951.40 
   12869.100   228493.40    118662.40 
   12871.370   229685.40    119397.40 
   12873.660   229303.40    119308.40 
   12875.960   228898.40    119155.40 
   12878.270   228975.40    119182.40 
   12880.590   228930.40    119211.40 
   12882.920   228910.40    119188.40 
   12885.270   228695.40    119063.40 
   12887.630   229708.40    119523.40 
   12890.000   230056.40    119611.40 
   12892.380   230466.40    119635.40 
   12894.780   231125.40    119691.40 
   12897.190   231856.40    119754.40 
   12899.610   232166.40    119587.40 
   12902.040   232784.40    119590.40 
   12904.480   233177.40    119492.40 
   12906.940   233776.40    119561.40 
   12909.410   234360.40    119616.40 
   12911.890   234798.40    119677.40 
   12914.380   235089.40    119623.40 
   12916.880   235137.40    119515.40 
   12919.400   235283.40    119491.40 
   12921.930   235496.40    119513.40 
   12924.470   235650.40    119545.40 
   12927.030   235655.40    119527.40 
   12929.590   235765.40    119549.40 
   12932.170   235831.40    119581.40 
   12934.760   235781.40    119480.40 
   12937.360   236114.40    119522.40 
   12939.980   236210.40    119468.40 
   12942.610   236126.40    119347.40 
   12945.240   236615.40    119459.40 
   12947.900   236844.40    119476.40 
   12950.560   237093.40    119493.40 
   12953.230   236996.40    119354.40 
   12955.920   237176.40    119320.40 
   12958.620   237366.40    119349.40 
   12961.330   237721.40    119421.40 
   12964.060   237995.40    119431.40 
   12966.790   237754.40    119285.40 
   12969.540   237870.40    119335.40 
   12972.300   237934.40    119356.40 
   12975.080   237911.40    119316.40 
   12977.860   237882.40    119257.40 
   12980.660   238031.40    119315.40 
   12983.470   238067.40    119334.40 
   12986.290   238345.40    119395.40 
   12989.130   238203.40    119241.40 
   12991.970   238100.40    119064.40 
   12994.830   239230.40    119471.40 
   12997.700   239267.40    119333.40 
   13000.580   239202.40    119140.40 
   13003.480   239613.40    119200.40 
   13006.380   240082.40    119252.40 
   13009.300   240394.40    119249.40 
   13012.230   240711.40    119200.40 
   13015.180   241038.40    119172.40 
   13018.130   241001.40    118956.40 
   13021.100   242342.40    119421.40 
   13024.080   242406.40    119368.40 
   13027.070   242485.40    119227.40 
   13030.080   243478.40    119564.40 
   13033.090   244212.40    119741.40 
   13036.120   244518.40    119712.40 
   13039.160   244770.40    119688.40 
   13042.220   245250.40    119775.40 
   13045.280   245406.40    119751.40 
   13048.360   245512.40    119701.40 
   13051.450   245348.40    119599.40 
   13054.550   245499.40    119601.40 
   13057.670   245729.40    119631.40 
   13060.790   245763.40    119567.40 
   13063.930   245984.40    119648.40 
   13067.080   246122.40    119620.40 
   13070.240   246533.40    119736.40 
   13073.420   246334.40    119605.40 
   13076.600   246266.40    119479.40 
   13079.800   246444.40    119472.40 
   13083.010   246921.40    119607.40 
   13086.240   247249.40    119658.40 
   13089.470   247245.40    119533.40 
   13092.720   247590.40    119592.40 
   13095.980   247742.40    119484.40 
   13099.250   247728.40    119342.40 
   13102.540   248061.40    119302.40 
   13105.840   248687.40    119441.40 
   13109.140   249091.40    119468.40 
   13112.470   249253.40    119405.40 
   13115.800   249612.40    119395.40 
   13119.140   249923.40    119414.40 
   13122.500   250435.40    119544.40 
   13125.870   250217.40    119338.40 
   13129.250   250458.40    119310.40 
   13132.650   250888.40    119382.40 
   13136.050   251408.40    119514.40 
   13139.470   251392.40    119386.40 
   13142.900   251477.40    119328.40 
   13146.350   251964.40    119401.40 
   13149.800   252071.40    119307.40 
   13153.270   252126.40    119211.40 
   13156.750   252592.40    119304.40 
   13160.240   253165.40    119429.40 
   13163.740   253350.40    119350.40 
   13167.260   253487.40    119300.40 
   13170.790   253616.40    119208.40 
   13174.330   253913.40    119247.40 
   13177.880   254310.40    119266.40 
   13181.440   254844.40    119378.40 
   13185.020   254967.40    119313.40 
   13188.610   255138.40    119240.40 
   13192.210   255372.40    119222.40 
   13195.820   255398.40    119136.40 
   13199.450   255784.40    119190.40 
   13203.090   256192.40    119284.40 
   13206.740   256800.40    119461.40 
   13210.400   258072.40    119928.40 
   13214.070   258185.40    119828.40 
   13217.760   257281.40    119297.40 
   13221.460   259764.40    120317.40 
   13225.170   259282.40    119939.40 
   13228.890   259214.40    119771.40 
   13232.630   259375.40    119715.40 
   13236.370   259964.40    119848.40 
   13240.130   259930.40    119703.40 
   13243.910   259878.40    119506.40 
   13247.690   260114.40    119490.40 
   13251.490   260431.40    119489.40 
   13255.290   261094.40    119647.40 
   13259.110   261237.40    119576.40 
   13262.950   261220.40    119379.40 
   13266.790   260589.40    118989.40 
   13270.650   257884.40    117571.40 
   13274.520   257342.40    117153.40 
   13278.400   261606.40    118918.40 
   13282.290   262551.40    119217.40 
   13286.200   262688.40    119111.40 
   13290.110   263799.40    119480.40 
   13294.040   264374.40    119599.40 
   13297.990   264298.40    119424.40 
   13301.940   264845.40    119485.40 
   13305.910   265605.40    119759.40 
   13309.890   265908.40    119746.40 
   13313.880   266119.40    119689.40 
   13317.880   266335.40    119671.40 
   13321.900   266106.40    119416.40 
   13325.920   266224.40    119354.40 
   13329.960   266831.40    119475.40 
   13334.010   267376.40    119583.40 
   13338.080   267604.40    119555.40 
   13342.150   267962.40    119600.40 
   13346.240   268499.40    119668.40 
   13350.340   268611.40    119572.40 
   13354.460   268933.40    119630.40 
   13358.580   269004.40    119508.40 
   13362.720   269020.40    119372.40 
   13366.870   269313.40    119297.40 
   13371.030   269469.40    119234.40 
   13375.200   269936.40    119294.40 
   13379.390   270365.40    119343.40 
   13383.580   270868.40    119426.40 
   13387.790   271037.40    119388.40 
   13392.020   271238.40    119301.40 
   13396.250   271572.40    119290.40 
   13400.500   272187.40    119447.40 
   13404.760   272430.40    119417.40 
