#XDI/1.1  GSE/1.0
# Column.1: energy eV
# Column.2: itrans
# Column.3: i0
# Scan.end_time: 2008-04-10 20:28:40
# Scan.start_time: 2008-04-10 20:10:57
# Element.symbol:  Se
# Element.edge:  K
# Facility.Name:  APS
# Beamline.Name:  13-BM-D
# Beamline.xray_source:  bending magnet
# Mono.dspacing:  3.13555
# Mono.name: Si 111
# Beamline.Storage_Ring_Current: 102.189 || S:SRcurrentAI.VAL
# Beamline.FOE_Mono_angle_readback: 9.0947 || 13BMA:m17.RBV
# Beamline.Mono_Energy_drive_val: 12508.0000 || 13BMA:E:Energy.VAL
# Beamline.Mono_Energy_readback: 12503.0242 || 13BMA:E:E_RBV
# Beamline.Mono_Beam_Offset: 20.0000 || 13BMA:E:height.VAL
# Beamline.I0_sensitivity_value: 5 || 13BMD:A3sens_num.VAL
# Beamline.I0_sensitivity_value: nA/V || 13BMD:A3sens_unit.VAL
# Beamline.I1_sensitivity_value: 20 || 13BMD:A2sens_num.VAL
# Beamline.I1_sensitivity_value: nA/V || 13BMD:A2sens_unit.VAL
# Beamline.FOE_Mono_Yout: 10.4439 || 13BMA:m10.VAL
# Beamline.FOE_Mono_Yin: 10.6474 || 13BMA:m11.VAL
# Beamline.FOE_Mono_Yup: 9.7047 || 13BMA:m12.VAL
# Beamline.FOE_Mono_Cage_Y: 0.000 || 13BMA:m13.VAL
# Beamline.FOE_Mono_Z: 64.134 || 13BMA:m14.VAL
# Beamline.FOE_Mono_angle: 9.0947 || 13BMA:m17.VAL
# Beamline.BMD_Horiz_Width: 5.000 || 13BMD:BMDHt2.C
# Beamline.BMD_Horiz_Center: -2.000 || 13BMD:BMDHt2.D
# Beamline.BMD_Vertical_Width: 0.500 || 13BMD:BMDVt2.C
# Beamline.BMD_Vertical_Center: -19.950 || 13BMD:BMDVt2.D
# Beamline.Sample_X: 326.174 || 13BMD:m70.VAL
# Beamline.Sample_Z__focus: 24.348 || 13BMD:m33.VAL
# Beamline.Sample_Y__height: 66.116 || 13BMD:m34.VAL
# ScanParameters.Start: Scan.Member: Value
# ScanParameters.E0: 12658.0
# ScanParameters.Legend: Start       Stop       Step       Npts       Time   Kspace?
# ScanParameters.Region1: -150.00    -10.000     5.0000     29.000     2.0000   0
# ScanParameters.Region2: -10.000     30.000    0.25000     161.00     2.0000   0
# ScanParameters.Region3: 2.8061     14.000   0.039978     281.00     2.0000   1
# ScanParameters.End: here
#-------------------------
#  energy  itrans  i0
   12508.000   356032.40    122363.40 
   12513.000   352246.40    120929.40 
   12518.000   350747.40    120356.40 
   12523.000   349300.40    119605.40 
   12528.000   349791.40    119682.40 
   12533.000   351054.40    119944.40 
   12538.000   350613.40    119678.40 
   12543.000   350069.40    119318.40 
   12548.000   350383.40    119308.40 
   12553.000   351247.40    119468.40 
   12558.000   351119.40    119299.40 
   12563.000   351334.40    119233.40 
   12568.000   352313.40    119391.40 
   12573.000   352680.40    119441.40 
   12578.000   352895.40    119350.40 
   12583.000   352682.40    119127.40 
   12588.000   352850.40    119061.40 
   12593.000   354841.40    119638.40 
   12598.000   354841.40    119504.40 
   12603.000   354511.40    119239.40 
   12608.000   355065.40    119288.40 
   12613.000   355860.40    119425.40 
   12618.000   355776.40    119280.40 
   12623.000   355379.40    119065.40 
   12628.000   355942.40    119142.40 
   12633.000   356633.40    119325.40 
   12638.000   356574.40    119303.40 
   12643.000   355731.40    119162.40 
   12648.000   354414.40    119139.40 
   12648.250   354819.40    119366.40 
   12648.500   354756.40    119385.40 
   12648.750   354855.40    119462.40 
   12649.000   354851.40    119507.40 
   12649.250   355027.40    119611.40 
   12649.500   354808.40    119638.40 
   12649.750   354503.40    119561.40 
   12650.000   354153.40    119535.40 
   12650.250   354105.40    119620.40 
   12650.500   354021.40    119629.40 
   12650.750   353238.40    119498.40 
   12651.000   353150.40    119541.40 
   12651.250   352646.40    119512.40 
   12651.500   352098.40    119507.40 
   12651.750   351848.40    119539.40 
   12652.000   351300.40    119540.40 
   12652.250   350729.40    119549.40 
   12652.500   349710.40    119451.40 
   12652.750   348754.40    119344.40 
   12653.000   347986.40    119416.40 
   12653.250   346676.40    119416.40 
   12653.500   345731.40    119406.40 
   12653.750   345249.40    119810.40 
   12654.000   343751.40    119812.40 
   12654.250   341745.40    119878.40 
   12654.500   339683.40    120051.40 
   12654.750   337678.40    120192.40 
   12655.000   334296.40    120267.40 
   12655.250   331202.40    120258.40 
   12655.500   326170.40    120115.40 
   12655.750   322115.40    120120.40 
   12656.000   315789.40    120053.40 
   12656.250   309221.40    120019.40 
   12656.500   304045.40    120031.40 
   12656.750   297181.40    119971.40 
   12657.000   293175.40    119949.40 
   12657.250   288080.40    119928.40 
   12657.500   285210.40    119964.40 
   12657.750   282041.40    119873.40 
   12658.000   279687.40    119826.40 
   12658.250   278304.40    119816.40 
   12658.500   276903.40    119905.40 
   12658.750   275780.40    119883.40 
   12659.000   274528.40    119914.40 
   12659.250   273175.40    119901.40 
   12659.500   272167.40    119871.40 
   12659.750   270807.40    119804.40 
   12660.000   269850.40    119770.40 
   12660.250   268777.40    119735.40 
   12660.500   268104.40    119790.40 
   12660.750   267235.40    119758.40 
   12661.000   266683.40    119765.40 
   12661.250   266463.40    119740.40 
   12661.500   266594.40    119791.40 
   12661.750   266767.40    119740.40 
   12662.000   267395.40    119730.40 
   12662.250   268102.40    119772.40 
   12662.500   268908.40    119698.40 
   12662.750   269902.40    119623.40 
   12663.000   270946.40    119692.40 
   12663.250   272307.40    119727.40 
   12663.500   273296.40    119770.40 
   12663.750   274496.40    119724.40 
   12664.000   275527.40    119627.40 
   12664.250   276418.40    119575.40 
   12664.500   277580.40    119523.40 
   12664.750   278675.40    119550.40 
   12665.000   280379.40    119704.40 
   12665.250   281270.40    119659.40 
   12665.500   282517.40    119577.40 
   12665.750   283853.40    119584.40 
   12666.000   284959.40    119667.40 
   12666.250   286016.40    119614.40 
   12666.500   286720.40    119585.40 
   12666.750   287634.40    119581.40 
   12667.000   288956.40    119894.40 
   12667.250   290512.40    120196.40 
   12667.500   290890.40    120150.40 
   12667.750   291213.40    120140.40 
   12668.000   291394.40    120087.40 
   12668.250   291688.40    120150.40 
   12668.500   291750.40    120166.40 
   12668.750   291490.40    120056.40 
   12669.000   291446.40    120083.40 
   12669.250   291327.40    120102.40 
   12669.500   291265.40    120155.40 
   12669.750   290909.40    120080.40 
   12670.000   290727.40    120073.40 
   12670.250   290624.40    120099.40 
   12670.500   290566.40    120115.40 
   12670.750   290314.40    120028.40 
   12671.000   290412.40    120046.40 
   12671.250   290343.40    119990.40 
   12671.500   290550.40    119991.40 
   12671.750   290802.40    120028.40 
   12672.000   291103.40    120033.40 
   12672.250   291335.40    120038.40 
   12672.500   291462.40    119967.40 
   12672.750   291725.40    119932.40 
   12673.000   291992.40    119918.40 
   12673.250   292324.40    119897.40 
   12673.500   292744.40    119976.40 
   12673.750   293106.40    119973.40 
   12674.000   293495.40    120021.40 
   12674.250   293591.40    119877.40 
   12674.500   293791.40    119831.40 
   12674.750   293802.40    119743.40 
   12675.000   294293.40    119828.40 
   12675.250   294446.40    119816.40 
   12675.500   294751.40    119846.40 
   12675.750   294671.40    119784.40 
   12676.000   294791.40    119772.40 
   12676.250   294812.40    119751.40 
   12676.500   294620.40    119660.40 
   12676.750   294833.40    119717.40 
   12677.000   294962.40    119788.40 
   12677.250   295132.40    119831.40 
   12677.500   294955.40    119783.40 
   12677.750   294849.40    119750.40 
   12678.000   294845.40    119749.40 
   12678.250   294660.40    119702.40 
   12678.500   294621.40    119702.40 
   12678.750   294575.40    119687.40 
   12679.000   294583.40    119703.40 
   12679.250   294648.40    119763.40 
   12679.500   294481.40    119716.40 
   12679.750   294311.40    119648.40 
   12680.000   294069.40    119587.40 
   12680.250   294356.40    119725.40 
   12680.500   295825.40    120348.40 
   12680.750   295599.40    120244.40 
   12681.000   295333.40    120173.40 
   12681.250   295276.40    120129.40 
   12681.500   295153.40    120073.40 
   12681.750   295456.40    120168.40 
   12682.000   295503.40    120147.40 
   12682.250   295399.40    120104.40 
   12682.500   295589.40    120155.40 
   12682.750   295708.40    120152.40 
   12683.000   295886.40    120185.40 
   12683.250   295731.40    120060.40 
   12683.500   295896.40    120089.40 
   12683.750   296071.40    120102.40 
   12684.000   296344.40    120163.40 
   12684.250   296390.40    120125.40 
   12684.500   296530.40    120126.40 
   12684.750   296600.40    120093.40 
   12685.000   296381.40    120004.40 
   12685.250   296433.40    119963.40 
   12685.500   296753.40    120099.40 
   12685.750   296848.40    120110.40 
   12686.000   296840.40    120119.40 
   12686.250   296655.40    120053.40 
   12686.500   296382.40    119936.40 
   12686.750   296445.40    119971.40 
   12687.000   296552.40    120026.40 
   12687.250   296519.40    120050.40 
   12687.500   296229.40    119936.40 
   12687.750   295918.40    119798.40 
   12688.000   296028.40    119889.40 
   12688.860   295703.40    119855.40 
   12689.730   295651.40    119925.40 
   12690.620   295414.40    119844.40 
   12691.520   295226.40    119770.40 
   12692.430   295285.40    119813.40 
   12693.350   295348.40    119784.40 
   12694.280   295524.40    119832.40 
   12695.230   295399.40    119757.40 
   12696.190   295160.40    119670.40 
   12697.160   295024.40    119615.40 
   12698.140   296099.40    120020.40 
   12699.130   295805.40    119848.40 
   12700.140   295787.40    119793.40 
   12701.160   295496.40    119640.40 
   12702.190   295911.40    119693.40 
   12703.240   296292.40    119726.40 
   12704.290   296982.40    119867.40 
   12705.360   297261.40    119764.40 
   12706.440   297575.40    119716.40 
   12707.530   297831.40    119635.40 
   12708.640   298104.40    119569.40 
   12709.750   298490.40    119638.40 
   12710.880   300089.40    120168.40 
   12712.020   300451.40    120223.40 
   12713.180   300747.40    120273.40 
   12714.340   300948.40    120243.40 
   12715.520   300632.40    120088.40 
   12716.710   300844.40    120103.40 
   12717.910   300940.40    120176.40 
   12719.130   300832.40    120157.40 
   12720.350   300467.40    120098.40 
   12721.590   300346.40    120110.40 
   12722.840   300372.40    120175.40 
   12724.100   300093.40    120135.40 
   12725.380   300085.40    120147.40 
   12726.670   299842.40    120090.40 
   12727.960   299850.40    120142.40 
   12729.280   299660.40    120066.40 
   12730.600   299475.40    120015.40 
   12731.940   299388.40    120008.40 
   12733.280   299514.40    120097.40 
   12734.640   299519.40    120138.40 
   12736.020   299217.40    120021.40 
   12737.400   299190.40    120031.40 
   12738.800   298915.40    119923.40 
   12740.210   298058.40    119513.40 
   12741.630   300240.40    120345.40 
   12743.060   299753.40    120127.40 
   12744.510   299868.40    120085.40 
   12745.960   300082.40    120082.40 
   12747.430   300283.40    120084.40 
   12748.920   300303.40    119971.40 
   12750.410   300521.40    119946.40 
   12751.920   300951.40    119956.40 
   12753.440   301170.40    119862.40 
   12754.970   301573.40    119857.40 
   12756.510   301989.40    119819.40 
   12758.060   302634.40    119872.40 
   12759.630   303299.40    119976.40 
   12761.210   303702.40    119980.40 
   12762.800   303848.40    119871.40 
   12764.410   303935.40    119780.40 
   12766.020   304056.40    119699.40 
   12767.650   304213.40    119712.40 
   12769.290   304558.40    119760.40 
   12770.940   304154.40    119589.40 
   12772.610   302890.40    119077.40 
   12774.290   305382.40    120057.40 
   12775.970   305229.40    120061.40 
   12777.680   304908.40    119984.40 
   12779.390   304367.40    119816.40 
   12781.110   303689.40    119612.40 
   12782.850   303895.40    119761.40 
   12784.600   303615.40    119709.40 
   12786.360   303530.40    119749.40 
   12788.140   303141.40    119607.40 
   12789.920   303177.40    119677.40 
   12791.720   303103.40    119659.40 
   12793.540   303037.40    119631.40 
   12795.360   302811.40    119566.40 
   12797.190   302929.40    119604.40 
   12799.040   302932.40    119584.40 
   12800.900   302871.40    119515.40 
   12802.770   301419.40    118898.40 
   12804.660   304692.40    120135.40 
   12806.550   304145.40    119848.40 
   12808.460   303791.40    119589.40 
   12810.380   303846.40    119517.40 
   12812.310   304069.40    119473.40 
   12814.260   304409.40    119492.40 
   12816.210   304863.40    119552.40 
   12818.180   305238.40    119521.40 
   12820.170   305499.40    119493.40 
   12822.160   305922.40    119454.40 
   12824.170   306516.40    119548.40 
   12826.180   306733.40    119462.40 
   12828.210   306888.40    119383.40 
   12830.250   307121.40    119311.40 
   12832.310   307776.40    119393.40 
   12834.380   308284.40    119473.40 
   12836.460   308308.40    119392.40 
   12838.550   307987.40    119163.40 
   12840.650   307957.40    119086.40 
   12842.760   309164.40    119478.40 
   12844.890   309017.40    119398.40 
   12847.030   308901.40    119317.40 
   12849.180   309051.40    119354.40 
   12851.350   309154.40    119363.40 
   12853.520   308957.40    119319.40 
   12855.710   306989.40    118605.40 
   12857.910   310182.40    119832.40 
   12860.130   309530.40    119568.40 
   12862.350   308999.40    119397.40 
   12864.590   308907.40    119336.40 
   12866.840   308449.40    119192.40 
   12869.100   306913.40    118583.40 
   12871.370   309393.40    119497.40 
   12873.660   309204.40    119417.40 
   12875.960   308887.40    119266.40 
   12878.270   309049.40    119306.40 
   12880.590   309045.40    119232.40 
   12882.920   309253.40    119230.40 
   12885.270   309509.40    119249.40 
   12887.630   309719.40    119260.40 
   12890.000   309715.40    119164.40 
   12892.380   310014.40    119149.40 
   12894.780   310323.40    119159.40 
   12897.190   310541.40    119142.40 
   12899.610   311016.40    119176.40 
   12902.040   312769.40    119729.40 
   12904.480   313046.40    119735.40 
   12906.940   313660.40    119828.40 
   12909.410   313574.40    119706.40 
   12911.890   313766.40    119647.40 
   12914.380   314067.40    119643.40 
   12916.880   314658.40    119715.40 
   12919.400   314716.40    119663.40 
   12921.930   315042.40    119672.40 
   12924.470   315348.40    119670.40 
   12927.030   315259.40    119573.40 
   12929.590   315547.40    119558.40 
   12932.170   315893.40    119640.40 
   12934.760   315629.40    119471.40 
   12937.360   316062.40    119551.40 
   12939.980   316007.40    119463.40 
   12942.610   315781.40    119325.40 
   12945.240   316806.40    119695.40 
   12947.900   316673.40    119566.40 
   12950.560   316683.40    119512.40 
   12953.230   316710.40    119484.40 
   12955.920   316632.40    119431.40 
   12958.620   316786.40    119439.40 
   12961.330   316701.40    119384.40 
   12964.060   316930.40    119421.40 
   12966.790   317045.40    119430.40 
   12969.540   317383.40    119467.40 
   12972.300   317262.40    119352.40 
   12975.080   317249.40    119262.40 
   12977.860   317635.40    119334.40 
   12980.660   317975.40    119368.40 
   12983.470   318251.40    119392.40 
   12986.290   318485.40    119375.40 
   12989.130   318876.40    119414.40 
   12991.970   318370.40    119117.40 
   12994.830   319161.40    119326.40 
   12997.700   319354.40    119267.40 
   13000.580   319693.40    119301.40 
   13003.480   320079.40    119310.40 
   13006.380   320348.40    119320.40 
   13009.300   320752.40    119362.40 
   13012.230   320827.40    119270.40 
   13015.180   320982.40    119214.40 
   13018.130   320394.40    118918.40 
   13021.100   321526.40    119239.40 
   13024.080   322158.40    119344.40 
   13027.070   322356.40    119297.40 
   13030.080   322559.40    119275.40 
   13033.090   322769.40    119254.40 
   13036.120   323264.40    119325.40 
   13039.160   323445.40    119316.40 
   13042.220   323222.40    119156.40 
   13045.280   323375.40    119128.40 
   13048.360   325331.40    119787.40 
   13051.450   325949.40    119902.40 
   13054.550   325626.40    119708.40 
   13057.670   325694.40    119666.40 
   13060.790   326280.40    119804.40 
   13063.930   326600.40    119835.40 
   13067.080   326471.40    119711.40 
   13070.240   326964.40    119823.40 
   13073.420   326824.40    119706.40 
   13076.600   327079.40    119676.40 
   13079.800   327132.40    119640.40 
   13083.010   327214.40    119609.40 
   13086.240   327770.40    119703.40 
   13089.470   328065.40    119697.40 
   13092.720   328046.40    119598.40 
   13095.980   328090.40    119546.40 
   13099.250   328765.40    119717.40 
   13102.540   328896.40    119621.40 
   13105.840   328959.40    119569.40 
   13109.140   329268.40    119559.40 
   13112.470   329492.40    119518.40 
   13115.800   329960.40    119566.40 
   13119.140   330252.40    119556.40 
   13122.500   330181.40    119449.40 
   13125.870   330513.40    119465.40 
   13129.250   331010.40    119529.40 
   13132.650   331159.40    119474.40 
   13136.050   331718.40    119551.40 
   13139.470   331672.40    119427.40 
   13142.900   332091.40    119487.40 
   13146.350   332104.40    119402.40 
   13149.800   332388.40    119354.40 
   13153.270   332692.40    119380.40 
   13156.750   333283.40    119509.40 
   13160.240   333345.40    119413.40 
   13163.740   333406.40    119345.40 
   13167.260   333919.40    119422.40 
   13170.790   333595.40    119215.40 
   13174.330   333749.40    119153.40 
   13177.880   334247.40    119250.40 
   13181.440   334749.40    119347.40 
   13185.020   335084.40    119353.40 
   13188.610   335478.40    119401.40 
   13192.210   335286.40    119223.40 
   13195.820   335566.40    119252.40 
   13199.450   335837.40    119244.40 
   13203.090   336223.40    119292.40 
   13206.740   336217.40    119182.40 
   13210.400   336817.40    119297.40 
   13214.070   337046.40    119249.40 
   13217.760   335466.40    118635.40 
   13221.460   338558.40    119594.40 
   13225.170   338046.40    119334.40 
   13228.890   339006.40    119558.40 
   13232.630   339816.40    119752.40 
   13236.370   339986.40    119710.40 
   13240.130   339931.40    119590.40 
   13243.910   340303.40    119583.40 
   13247.690   340878.40    119662.40 
   13251.490   341060.40    119628.40 
   13255.290   341100.40    119516.40 
   13259.110   341360.40    119524.40 
   13262.950   341155.40    119353.40 
   13266.790   340521.40    119048.40 
   13270.650   337397.40    117858.40 
   13274.520   336178.40    117344.40 
   13278.400   341204.40    119018.40 
   13282.290   342064.40    119211.40 
   13286.200   341897.40    119072.40 
   13290.110   343694.40    119559.40 
   13294.040   344131.40    119631.40 
   13297.990   344010.40    119458.40 
   13301.940   344065.40    119370.40 
   13305.910   345617.40    119814.40 
   13309.890   345781.40    119758.40 
   13313.880   346091.40    119764.40 
   13317.880   346308.40    119729.40 
   13321.900   346366.40    119621.40 
   13325.920   346268.40    119483.40 
   13329.960   346424.40    119438.40 
   13334.010   347495.40    119701.40 
   13338.080   347773.40    119706.40 
   13342.150   348104.40    119675.40 
   13346.240   348349.40    119701.40 
   13350.340   348703.40    119689.40 
   13354.460   348697.40    119584.40 
   13358.580   348750.40    119474.40 
   13362.720   348774.40    119364.40 
   13366.870   349357.40    119441.40 
   13371.030   349775.40    119509.40 
   13375.200   349688.40    119340.40 
   13379.390   350195.40    119410.40 
   13383.580   350643.40    119470.40 
   13387.790   350904.40    119440.40 
   13392.020   351174.40    119397.40 
   13396.250   351554.40    119391.40 
   13400.500   352169.40    119520.40 
   13404.760   352530.40    119497.40 
