#XDI/1.1  GSE/1.0
# Column.1: energy eV
# Column.2: itrans
# Column.3: i0
# Scan.end_time: 2008-04-10 20:10:56
# Scan.start_time: 2008-04-10 19:53:15
# Element.symbol:  Se
# Element.edge:  K
# Facility.Name:  APS
# Beamline.Name:  13-BM-D
# Beamline.xray_source:  bending magnet
# Mono.dspacing:  3.13555
# Mono.name: Si 111
# Beamline.Storage_Ring_Current: 102.101 || S:SRcurrentAI.VAL
# Beamline.FOE_Mono_angle_readback: 9.0947 || 13BMA:m17.RBV
# Beamline.Mono_Energy_drive_val: 12508.0000 || 13BMA:E:Energy.VAL
# Beamline.Mono_Energy_readback: 12503.0242 || 13BMA:E:E_RBV
# Beamline.Mono_Beam_Offset: 20.0000 || 13BMA:E:height.VAL
# Beamline.I0_sensitivity_value: 5 || 13BMD:A3sens_num.VAL
# Beamline.I0_sensitivity_value: nA/V || 13BMD:A3sens_unit.VAL
# Beamline.I1_sensitivity_value: 20 || 13BMD:A2sens_num.VAL
# Beamline.I1_sensitivity_value: nA/V || 13BMD:A2sens_unit.VAL
# Beamline.FOE_Mono_Yout: 10.4439 || 13BMA:m10.VAL
# Beamline.FOE_Mono_Yin: 10.6474 || 13BMA:m11.VAL
# Beamline.FOE_Mono_Yup: 9.7047 || 13BMA:m12.VAL
# Beamline.FOE_Mono_Cage_Y: 0.000 || 13BMA:m13.VAL
# Beamline.FOE_Mono_Z: 64.134 || 13BMA:m14.VAL
# Beamline.FOE_Mono_angle: 9.0947 || 13BMA:m17.VAL
# Beamline.BMD_Horiz_Width: 5.000 || 13BMD:BMDHt2.C
# Beamline.BMD_Horiz_Center: -2.000 || 13BMD:BMDHt2.D
# Beamline.BMD_Vertical_Width: 0.500 || 13BMD:BMDVt2.C
# Beamline.BMD_Vertical_Center: -19.950 || 13BMD:BMDVt2.D
# Beamline.Sample_X: 326.174 || 13BMD:m70.VAL
# Beamline.Sample_Z__focus: 24.348 || 13BMD:m33.VAL
# Beamline.Sample_Y__height: 66.116 || 13BMD:m34.VAL
# ScanParameters.Start: Scan.Member: Value
# ScanParameters.E0: 12658.0
# ScanParameters.Legend: Start       Stop       Step       Npts       Time   Kspace?
# ScanParameters.Region1: -150.00    -10.000     5.0000     29.000     2.0000   0
# ScanParameters.Region2: -10.000     30.000    0.25000     161.00     2.0000   0
# ScanParameters.Region3: 2.8061     14.000   0.039978     281.00     2.0000   1
# ScanParameters.End: here
#-------------------------
#  energy  itrans  i0
   12508.000   351875.40    120917.40 
   12513.000   348802.40    119710.40 
   12518.000   347844.40    119287.40 
   12523.000   346738.40    118814.40 
   12528.000   349031.40    119328.40 
   12533.000   350786.40    119844.40 
   12538.000   350752.40    119691.40 
   12543.000   350134.40    119332.40 
   12548.000   349964.40    119163.40 
   12553.000   350170.40    119082.40 
   12558.000   350873.40    119196.40 
   12563.000   351330.40    119221.40 
   12568.000   351843.40    119264.40 
   12573.000   352409.40    119336.40 
   12578.000   352593.40    119230.40 
   12583.000   352529.40    119087.40 
   12588.000   352587.40    118970.40 
   12593.000   354581.40    119502.40 
   12598.000   354286.40    119279.40 
   12603.000   353694.40    118936.40 
   12608.000   354602.40    119136.40 
   12613.000   355411.40    119273.40 
   12618.000   355319.40    119129.40 
   12623.000   355071.40    118961.40 
   12628.000   356133.40    119217.40 
   12633.000   356536.40    119292.40 
   12638.000   356080.40    119124.40 
   12643.000   355119.40    118929.40 
   12648.000   354200.40    119067.40 
   12648.250   354760.40    119283.40 
   12648.500   354810.40    119381.40 
   12648.750   354730.40    119375.40 
   12649.000   354812.40    119482.40 
   12649.250   354873.40    119536.40 
   12649.500   354709.40    119538.40 
   12649.750   354374.40    119482.40 
   12650.000   354105.40    119489.40 
   12650.250   353666.40    119439.40 
   12650.500   353268.40    119383.40 
   12650.750   353119.40    119435.40 
   12651.000   352861.40    119469.40 
   12651.250   352494.40    119461.40 
   12651.500   351764.40    119386.40 
   12651.750   351558.40    119448.40 
   12652.000   352810.40    120064.40 
   12652.250   352216.40    120028.40 
   12652.500   351278.40    119983.40 
   12652.750   350585.40    119940.40 
   12653.000   349504.40    119945.40 
   12653.250   348230.40    119948.40 
   12653.500   347148.40    119907.40 
   12653.750   345331.40    119880.40 
   12654.000   343754.40    119837.40 
   12654.250   341376.40    119777.40 
   12654.500   339099.40    119891.40 
   12654.750   337468.40    120144.40 
   12655.000   334104.40    120233.40 
   12655.250   331278.40    120319.40 
   12655.500   326212.40    120246.40 
   12655.750   321902.40    120099.40 
   12656.000   315163.40    119923.40 
   12656.250   308165.40    119744.40 
   12656.500   303070.40    119770.40 
   12656.750   296898.40    119937.40 
   12657.000   292863.40    119945.40 
   12657.250   287760.40    119827.40 
   12657.500   284492.40    119727.40 
   12657.750   281782.40    119803.40 
   12658.000   279632.40    119829.40 
   12658.250   278414.40    119924.40 
   12658.500   276598.40    119828.40 
   12658.750   275468.40    119807.40 
   12659.000   274073.40    119739.40 
   12659.250   272752.40    119725.40 
   12659.500   271927.40    119765.40 
   12659.750   270609.40    119725.40 
   12660.000   269561.40    119649.40 
   12660.250   268419.40    119636.40 
   12660.500   267832.40    119705.40 
   12660.750   266893.40    119630.40 
   12661.000   266483.40    119675.40 
   12661.250   266150.40    119601.40 
   12661.500   266188.40    119562.40 
   12661.750   266311.40    119527.40 
   12662.000   266945.40    119507.40 
   12662.250   267758.40    119620.40 
   12662.500   269101.40    119780.40 
   12662.750   270126.40    119711.40 
   12663.000   270825.40    119608.40 
   12663.250   271851.40    119539.40 
   12663.500   272801.40    119539.40 
   12663.750   274257.40    119613.40 
   12664.000   275589.40    119634.40 
   12664.250   276552.40    119640.40 
   12664.500   277756.40    119580.40 
   12664.750   278559.40    119506.40 
   12665.000   279630.40    119366.40 
   12665.250   282038.40    119968.40 
   12665.500   284120.40    120252.40 
   12665.750   285264.40    120164.40 
   12666.000   285992.40    120091.40 
   12666.250   287057.40    120050.40 
   12666.500   287996.40    120097.40 
   12666.750   289011.40    120139.40 
   12667.000   289436.40    120065.40 
   12667.250   290041.40    120016.40 
   12667.500   290524.40    120023.40 
   12667.750   290756.40    119938.40 
   12668.000   291221.40    120011.40 
   12668.250   291389.40    120027.40 
   12668.500   291342.40    119980.40 
   12668.750   291296.40    120004.40 
   12669.000   291043.40    119925.40 
   12669.250   291047.40    120013.40 
   12669.500   290976.40    120055.40 
   12669.750   290477.40    119962.40 
   12670.000   290333.40    119937.40 
   12670.250   290078.40    119894.40 
   12670.500   290030.40    119896.40 
   12670.750   290157.40    119970.40 
   12671.000   290131.40    119942.40 
   12671.250   290276.40    119956.40 
   12671.500   290463.40    119980.40 
   12671.750   290362.40    119846.40 
   12672.000   290493.40    119770.40 
   12672.250   290644.40    119774.40 
   12672.500   291298.40    119902.40 
   12672.750   291414.40    119824.40 
   12673.000   291498.40    119758.40 
   12673.250   291786.40    119718.40 
   12673.500   292083.40    119717.40 
   12673.750   292361.40    119678.40 
   12674.000   292769.40    119733.40 
   12674.250   293208.40    119758.40 
   12674.500   293661.40    119821.40 
   12674.750   293855.40    119797.40 
   12675.000   294018.40    119750.40 
   12675.250   294212.40    119745.40 
   12675.500   294270.40    119691.40 
   12675.750   294215.40    119608.40 
   12676.000   294297.40    119602.40 
   12676.250   294318.40    119591.40 
   12676.500   294505.40    119636.40 
   12676.750   294609.40    119645.40 
   12677.000   294632.40    119662.40 
   12677.250   294786.40    119721.40 
   12677.500   294688.40    119691.40 
   12677.750   294648.40    119692.40 
   12678.000   294561.40    119649.40 
   12678.250   294438.40    119599.40 
   12678.500   295061.40    119900.40 
   12678.750   295851.40    120233.40 
   12679.000   295715.40    120200.40 
   12679.250   295737.40    120207.40 
   12679.500   295684.40    120231.40 
   12679.750   295584.40    120198.40 
   12680.000   295360.40    120170.40 
   12680.250   295234.40    120157.40 
   12680.500   295270.40    120153.40 
   12680.750   295127.40    120086.40 
   12681.000   295225.40    120138.40 
   12681.250   295083.40    120090.40 
   12681.500   295115.40    120055.40 
   12681.750   295080.40    120039.40 
   12682.000   295217.40    120103.40 
   12682.250   295221.40    120051.40 
   12682.500   295413.40    120137.40 
   12682.750   295474.40    120110.40 
   12683.000   295745.40    120154.40 
   12683.250   295721.40    120099.40 
   12683.500   295546.40    119977.40 
   12683.750   295679.40    119979.40 
   12684.000   295973.40    120019.40 
   12684.250   296113.40    120008.40 
   12684.500   296123.40    119998.40 
   12684.750   296105.40    119956.40 
   12685.000   296280.40    119977.40 
   12685.250   296609.40    120096.40 
   12685.500   296771.40    120117.40 
   12685.750   296675.40    120103.40 
   12686.000   296323.40    119908.40 
   12686.250   296124.40    119839.40 
   12686.500   295991.40    119798.40 
   12686.750   296306.40    119940.40 
   12687.000   296384.40    119998.40 
   12687.250   296210.40    119966.40 
   12687.500   295826.40    119824.40 
   12687.750   295840.40    119846.40 
   12688.000   296001.40    119900.40 
   12688.860   295787.40    119920.40 
   12689.730   295230.40    119778.40 
   12690.620   294776.40    119604.40 
   12691.520   294940.40    119686.40 
   12692.430   295074.40    119762.40 
   12693.350   295135.40    119738.40 
   12694.280   295238.40    119737.40 
   12695.230   295185.40    119699.40 
   12696.190   294702.40    119485.40 
   12697.160   294445.40    119406.40 
   12698.140   295674.40    119877.40 
   12699.130   295732.40    119841.40 
   12700.140   295333.40    119650.40 
   12701.160   295607.40    119693.40 
   12702.190   295710.40    119628.40 
   12703.240   296283.40    119745.40 
   12704.290   296659.40    119726.40 
   12705.360   296670.40    119537.40 
   12706.440   297220.40    119575.40 
   12707.530   297638.40    119581.40 
   12708.640   298111.40    119584.40 
   12709.750   298448.40    119616.40 
   12710.880   298381.40    119472.40 
   12712.020   298588.40    119441.40 
   12713.180   298883.40    119504.40 
   12714.340   299389.40    119620.40 
   12715.520   299340.40    119556.40 
   12716.710   299230.40    119492.40 
   12717.910   298959.40    119366.40 
   12719.130   299168.40    119510.40 
   12720.350   299203.40    119562.40 
   12721.590   298969.40    119519.40 
   12722.840   298645.40    119479.40 
   12724.100   298300.40    119375.40 
   12725.380   298397.40    119486.40 
   12726.670   298077.40    119394.40 
   12727.960   297851.40    119321.40 
   12729.280   297729.40    119286.40 
   12730.600   297702.40    119303.40 
   12731.940   297815.40    119365.40 
   12733.280   297548.40    119316.40 
   12734.640   297567.40    119313.40 
   12736.020   297502.40    119336.40 
   12737.400   297316.40    119278.40 
   12738.800   297023.40    119174.40 
   12740.210   296334.40    118842.40 
   12741.630   298623.40    119743.40 
   12743.060   298076.40    119444.40 
   12744.510   297957.40    119335.40 
   12745.960   298114.40    119320.40 
   12747.430   298288.40    119302.40 
   12748.920   298606.40    119327.40 
   12750.410   298586.40    119185.40 
   12751.920   298897.40    119128.40 
   12753.440   299396.40    119167.40 
   12754.970   300070.40    119289.40 
   12756.510   300333.40    119165.40 
   12758.060   300752.40    119156.40 
   12759.630   301111.40    119140.40 
   12761.210   301490.40    119101.40 
   12762.800   301934.40    119136.40 
   12764.410   302308.40    119152.40 
   12766.020   302775.40    119210.40 
   12767.650   302749.40    119109.40 
   12769.290   302684.40    119018.40 
   12770.940   302377.40    118866.40 
   12772.610   301190.40    118420.40 
   12774.290   304350.40    119658.40 
   12775.970   304886.40    119924.40 
   12777.680   304475.40    119813.40 
   12779.390   303918.40    119632.40 
   12781.110   303501.40    119552.40 
   12782.850   303442.40    119595.40 
   12784.600   303099.40    119526.40 
   12786.360   302714.40    119396.40 
   12788.140   302926.40    119553.40 
   12789.920   302973.40    119601.40 
   12791.720   302556.40    119457.40 
   12793.540   302347.40    119377.40 
   12795.360   302215.40    119341.40 
   12797.190   302255.40    119332.40 
   12799.040   302559.40    119458.40 
   12800.900   302680.40    119436.40 
   12802.770   301004.40    118746.40 
   12804.660   304332.40    120027.40 
   12806.550   303611.40    119650.40 
   12808.460   303200.40    119364.40 
   12810.380   303437.40    119341.40 
   12812.310   303806.40    119395.40 
   12814.260   304235.40    119466.40 
   12816.210   304384.40    119371.40 
   12818.180   304752.40    119354.40 
   12820.170   304984.40    119302.40 
   12822.160   305368.40    119293.40 
   12824.170   305962.40    119325.40 
   12826.180   306560.40    119398.40 
   12828.210   306952.40    119396.40 
   12830.250   307033.40    119284.40 
   12832.310   307368.40    119250.40 
   12834.380   307552.40    119203.40 
   12836.460   308158.40    119342.40 
   12838.550   307512.40    118996.40 
   12840.650   307552.40    118955.40 
   12842.760   309025.40    119438.40 
   12844.890   308666.40    119263.40 
   12847.030   308759.40    119254.40 
   12849.180   308689.40    119222.40 
   12851.350   308749.40    119253.40 
   12853.520   308739.40    119247.40 
   12855.710   306749.40    118481.40 
   12857.910   309786.40    119699.40 
   12860.130   309171.40    119433.40 
   12862.350   308809.40    119324.40 
   12864.590   308538.40    119212.40 
   12866.840   307871.40    119007.40 
   12869.100   306667.40    118515.40 
   12871.370   308875.40    119358.40 
   12873.660   308977.40    119355.40 
   12875.960   308301.40    119035.40 
   12878.270   308639.40    119133.40 
   12880.590   308693.40    119095.40 
   12882.920   309533.40    119354.40 
   12885.270   310187.40    119518.40 
   12887.630   310700.40    119640.40 
   12890.000   311085.40    119661.40 
   12892.380   311383.40    119690.40 
   12894.780   311385.40    119578.40 
   12897.190   311475.40    119461.40 
   12899.610   311753.40    119513.40 
   12902.040   312052.40    119479.40 
   12904.480   312595.40    119584.40 
   12906.940   312883.40    119553.40 
   12909.410   313088.40    119522.40 
   12911.890   313495.40    119578.40 
   12914.380   313347.40    119395.40 
   12916.880   313662.40    119356.40 
   12919.400   314309.40    119501.40 
   12921.930   314632.40    119547.40 
   12924.470   314528.40    119372.40 
   12927.030   314765.40    119355.40 
   12929.590   315199.40    119433.40 
   12932.170   315417.40    119424.40 
   12934.760   315540.40    119426.40 
   12937.360   315960.40    119513.40 
   12939.980   316001.40    119444.40 
   12942.610   315644.40    119279.40 
   12945.240   315960.40    119357.40 
   12947.900   315946.40    119292.40 
   12950.560   316212.40    119357.40 
   12953.230   316195.40    119334.40 
   12955.920   316176.40    119257.40 
   12958.620   316332.40    119291.40 
   12961.330   316612.40    119332.40 
   12964.060   316618.40    119317.40 
   12966.790   316121.40    119035.40 
   12969.540   316630.40    119173.40 
   12972.300   316967.40    119231.40 
   12975.080   317502.40    119375.40 
   12977.860   317477.40    119286.40 
   12980.660   317623.40    119237.40 
   12983.470   317567.40    119183.40 
   12986.290   317896.40    119167.40 
   12989.130   318048.40    119126.40 
   12991.970   318150.40    119063.40 
   12994.830   319305.40    119374.40 
   12997.700   319166.40    119180.40 
   13000.580   318947.40    119034.40 
   13003.480   319348.40    119046.40 
   13006.380   320021.40    119181.40 
   13009.300   320321.40    119188.40 
   13012.230   320654.40    119199.40 
   13015.180   320410.40    119005.40 
   13018.130   320549.40    118956.40 
   13021.100   321729.40    119294.40 
   13024.080   321941.40    119255.40 
   13027.070   323546.40    119757.40 
   13030.080   323584.40    119683.40 
   13033.090   324045.40    119747.40 
   13036.120   324011.40    119640.40 
   13039.160   324048.40    119543.40 
   13042.220   324150.40    119524.40 
   13045.280   324321.40    119471.40 
   13048.360   324656.40    119541.40 
   13051.450   324818.40    119486.40 
   13054.550   325064.40    119531.40 
   13057.670   325189.40    119504.40 
   13060.790   325517.40    119522.40 
   13063.930   325883.40    119576.40 
   13067.080   326036.40    119578.40 
   13070.240   326140.40    119513.40 
   13073.420   326257.40    119461.40 
   13076.600   326333.40    119454.40 
   13079.800   326790.40    119538.40 
   13083.010   326945.40    119505.40 
   13086.240   327015.40    119431.40 
   13089.470   327187.40    119393.40 
   13092.720   327799.40    119521.40 
   13095.980   328022.40    119501.40 
   13099.250   328091.40    119449.40 
   13102.540   328400.40    119449.40 
   13105.840   328695.40    119451.40 
   13109.140   328823.40    119375.40 
   13112.470   329124.40    119379.40 
   13115.800   329300.40    119369.40 
   13119.140   329879.40    119463.40 
   13122.500   329891.40    119345.40 
   13125.870   329858.40    119201.40 
   13129.250   330366.40    119296.40 
   13132.650   330812.40    119345.40 
   13136.050   331139.40    119359.40 
   13139.470   331328.40    119332.40 
   13142.900   331356.40    119235.40 
   13146.350   331765.40    119228.40 
   13149.800   331896.40    119227.40 
   13153.270   332099.40    119170.40 
   13156.750   332365.40    119136.40 
   13160.240   332923.40    119266.40 
   13163.740   333338.40    119315.40 
   13167.260   333764.40    119347.40 
   13170.790   333998.40    119343.40 
   13174.330   334311.40    119371.40 
   13177.880   334176.40    119238.40 
   13181.440   334204.40    119107.40 
   13185.020   334306.40    119074.40 
   13188.610   334931.40    119223.40 
   13192.210   335224.40    119224.40 
   13195.820   335256.40    119139.40 
   13199.450   335378.40    119039.40 
   13203.090   337021.40    119550.40 
   13206.740   337942.40    119811.40 
   13210.400   337908.40    119666.40 
   13214.070   337785.40    119518.40 
   13217.760   336908.40    119133.40 
   13221.460   340016.40    120138.40 
   13225.170   339303.40    119779.40 
   13228.890   339065.40    119600.40 
   13232.630   339421.40    119645.40 
   13236.370   339835.40    119636.40 
   13240.130   340075.40    119601.40 
   13243.910   340261.40    119580.40 
   13247.690   340615.40    119561.40 
   13251.490   340646.40    119484.40 
   13255.290   340969.40    119473.40 
   13259.110   341005.40    119380.40 
   13262.950   340845.40    119224.40 
   13266.790   339911.40    118811.40 
   13270.650   336104.40    117382.40 
   13274.520   334897.40    116877.40 
   13278.400   340475.40    118751.40 
   13282.290   341934.40    119146.40 
   13286.200   341126.40    118776.40 
   13290.110   343076.40    119327.40 
   13294.040   343964.40    119533.40 
   13297.990   343826.40    119410.40 
   13301.940   343786.40    119276.40 
   13305.910   345125.40    119638.40 
   13309.890   345479.40    119639.40 
   13313.880   345721.40    119606.40 
   13317.880   345665.40    119488.40 
   13321.900   345214.40    119203.40 
   13325.920   345422.40    119181.40 
   13329.960   346246.40    119371.40 
   13334.010   347507.40    119678.40 
   13338.080   347560.40    119606.40 
   13342.150   348006.40    119656.40 
   13346.240   348377.40    119631.40 
   13350.340   348288.40    119512.40 
   13354.460   348194.40    119366.40 
   13358.580   348311.40    119299.40 
   13362.720   348537.40    119250.40 
   13366.870   348750.40    119219.40 
   13371.030   348859.40    119122.40 
   13375.200   349444.40    119221.40 
   13379.390   349737.40    119221.40 
   13383.580   349946.40    119193.40 
   13387.790   350481.40    119231.40 
   13392.020   351234.40    119409.40 
   13396.250   351431.40    119339.40 
   13400.500   351625.40    119299.40 
   13404.760   351727.40    119216.40 
