#XDI/1.1  GSE/1.0
# Column.1: energy eV
# Column.2: itrans
# Column.3: i0
# Scan.end_time: 2008-04-10 17:47:10
# Scan.start_time: 2008-04-10 17:29:28
# Element.symbol:  Se
# Element.edge:  K
# Mono.d_spacing:  3.13555
# Mono.name: Si 111
# Sample.temperature: room temperature
# Sample.formula: CoSe
# Sample.name: cobalt selenide
# Sample.prep: powder on tape, many layers
# Facility.Name:  APS
# Beamline.Name:  13-BM-D
# Beamline.xray_source:  bending magnet
# Beamline.Storage_Ring_Current: 101.898
# Beamline.I0: N2, 5 nA/V
# Beamline.I1: N2, 20 nA/V
# ScanParameters.E0: 12658.0
# ScanParameters.Legend: Start       Stop       Step       Npts       Time   Kspace?
# ScanParameters.Region1: -150.00    -10.000     5.0000     29.000     2.0000   0
# ScanParameters.Region2: -10.000     30.000    0.25000     161.00     2.0000   0
# ScanParameters.Region3: 2.8061     14.000   0.039978     281.00     2.0000   1
#-------------------------
#  energy  itrans  i0
   12508.000   349869.40    120521.40
   12513.000   347923.40    119673.40
   12518.000   347787.40    119496.40
   12523.000   347841.40    119350.40
   12528.000   346831.40    118905.40
   12533.000   346400.40    118593.40
   12538.000   347530.40    118822.40
   12543.000   349150.40    119252.40
   12548.000   349002.40    119075.40
   12553.000   348974.40    118955.40
   12558.000   349708.40    119021.40
   12563.000   350032.40    119029.40
   12568.000   349866.40    118815.40
   12573.000   350027.40    118757.40
   12578.000   351397.40    119103.40
   12583.000   351900.40    119131.40
   12588.000   350570.40    118546.40
   12593.000   351996.40    118921.40
   12598.000   352268.40    118902.40
   12603.000   353080.40    119048.40
   12608.000   353064.40    118927.40
   12613.000   352730.40    118737.40
   12618.000   353556.40    118933.40
   12623.000   353817.40    118976.40
   12628.000   353040.40    118724.40
   12633.000   352142.40    118519.40
   12638.000   352266.40    118807.40
   12643.000   351008.40    118959.40
   12648.000   345564.40    118804.40
   12648.250   345776.40    119078.40
   12648.500   345472.40    119178.40
   12648.750   345409.40    119263.40
   12649.000   344617.40    119253.40
   12649.250   344319.40    119309.40
   12649.500   343287.40    119251.40
   12649.750   342927.40    119328.40
   12650.000   341914.40    119277.40
   12650.250   340609.40    119236.40
   12650.500   341220.40    119754.40
   12650.750   339971.40    119775.40
   12651.000   338826.40    119725.40
   12651.250   337300.40    119822.40
   12651.500   335240.40    119838.40
   12651.750   333316.40    119712.40
   12652.000   330825.40    119749.40
   12652.250   328706.40    119814.40
   12652.500   324964.40    119776.40
   12652.750   321631.40    119639.40
   12653.000   316417.40    119501.40
   12653.250   310222.40    119463.40
   12653.500   305178.40    119474.40
   12653.750   297221.40    119521.40
   12654.000   289668.40    119551.40
   12654.250   279053.40    119655.40
   12654.500   266447.40    119708.40
   12654.750   255122.40    119665.40
   12655.000   239798.40    119786.40
   12655.250   228096.40    119805.40
   12655.500   212763.40    119735.40
   12655.750   203018.40    119724.40
   12656.000   192384.40    119670.40
   12656.250   186460.40    119608.40
   12656.500   185024.40    119713.40
   12656.750   186544.40    119574.40
   12657.000   189662.40    119555.40
   12657.250   196225.40    119544.40
   12657.500   202117.40    119504.40
   12657.750   209864.40    119430.40
   12658.000   217067.40    119438.40
   12658.250   222179.40    119456.40
   12658.500   227714.40    119469.40
   12658.750   230740.40    119455.40
   12659.000   233660.40    119472.40
   12659.250   234938.40    119487.40
   12659.500   234885.40    119489.40
   12659.750   233413.40    119460.40
   12660.000   231491.40    119406.40
   12660.250   228083.40    119405.40
   12660.500   225042.40    119386.40
   12660.750   220555.40    119358.40
   12661.000   216089.40    119340.40
   12661.250   212609.40    119367.40
   12661.500   208545.40    119395.40
   12661.750   205637.40    119422.40
   12662.000   202045.40    119402.40
   12662.250   199565.40    119363.40
   12662.500   196578.40    119370.40
   12662.750   193595.40    119340.40
   12663.000   191769.40    119387.40
   12663.250   189216.40    119313.40
   12663.500   187596.40    119274.40
   12663.750   186282.40    119664.40
   12664.000   185069.40    119897.40
   12664.250   184289.40    120038.40
   12664.500   183182.40    119999.40
   12664.750   182449.40    119922.40
   12665.000   181833.40    119900.40
   12665.250   181580.40    119931.40
   12665.500   181419.40    119924.40
   12665.750   181482.40    119915.40
   12666.000   181545.40    119864.40
   12666.250   181811.40    119709.40
   12666.500   182478.40    119845.40
   12666.750   183220.40    119808.40
   12667.000   183845.40    119778.40
   12667.250   185017.40    119830.40
   12667.500   186085.40    119735.40
   12667.750   187160.40    119820.40
   12668.000   188417.40    119740.40
   12668.250   189347.40    119709.40
   12668.500   190706.40    119733.40
   12668.750   191638.40    119675.40
   12669.000   192872.40    119594.40
   12669.250   194500.40    119693.40
   12669.500   195472.40    119684.40
   12669.750   196767.40    119622.40
   12670.000   198014.40    119711.40
   12670.250   199295.40    119656.40
   12670.500   200372.40    119657.40
   12670.750   201616.40    119549.40
   12671.000   202942.40    119604.40
   12671.250   203936.40    119570.40
   12671.500   205152.40    119598.40
   12671.750   205951.40    119556.40
   12672.000   206870.40    119504.40
   12672.250   207622.40    119513.40
   12672.500   208471.40    119479.40
   12672.750   209456.40    119619.40
   12673.000   210035.40    119649.40
   12673.250   210653.40    119560.40
   12673.500   211030.40    119496.40
   12673.750   211544.40    119450.40
   12674.000   212003.40    119467.40
   12674.250   212628.40    119444.40
   12674.500   213282.40    119458.40
   12674.750   213802.40    119465.40
   12675.000   214240.40    119412.40
   12675.250   214648.40    119415.40
   12675.500   215133.40    119345.40
   12675.750   215670.40    119463.40
   12676.000   216168.40    119445.40
   12676.250   216552.40    119403.40
   12676.500   216796.40    119392.40
   12676.750   217153.40    119381.40
   12677.000   217334.40    119354.40
   12677.250   218996.40    120125.40
   12677.500   219193.40    120100.40
   12677.750   219573.40    120178.40
   12678.000   219753.40    120149.40
   12678.250   219744.40    120075.40
   12678.500   220006.40    120114.40
   12678.750   219967.40    119989.40
   12679.000   220048.40    119916.40
   12679.250   220138.40    119884.40
   12679.500   220365.40    119899.40
   12679.750   220602.40    119925.40
   12680.000   220642.40    119841.40
   12680.250   220786.40    119813.40
   12680.500   220935.40    119846.40
   12680.750   221123.40    119837.40
   12681.000   221219.40    119854.40
   12681.250   221182.40    119809.40
   12681.500   221131.40    119759.40
   12681.750   221099.40    119772.40
   12682.000   221074.40    119805.40
   12682.250   220953.40    119749.40
   12682.500   220882.40    119769.40
   12682.750   220694.40    119749.40
   12683.000   220467.40    119738.40
   12683.250   220143.40    119649.40
   12683.500   220092.40    119755.40
   12683.750   219925.40    119773.40
   12684.000   219615.40    119756.40
   12684.250   219388.40    119784.40
   12684.500   219080.40    119787.40
   12684.750   218558.40    119698.40
   12685.000   218164.40    119643.40
   12685.250   217818.40    119617.40
   12685.500   217677.40    119706.40
   12685.750   217311.40    119682.40
   12686.000   216981.40    119662.40
   12686.250   216644.40    119643.40
   12686.500   216143.40    119580.40
   12686.750   215889.40    119569.40
   12687.000   215596.40    119571.40
   12687.250   215322.40    119547.40
   12687.500   214991.40    119555.40
   12687.750   214708.40    119573.40
   12688.000   214407.40    119517.40
   12688.860   213503.40    119513.40
   12689.730   212533.40    119420.40
   12690.620   212055.40    119430.40
   12691.520   211974.40    119521.40
   12692.430   211955.40    119493.40
   12693.350   212240.40    119501.40
   12694.280   212503.40    119425.40
   12695.230   212862.40    119385.40
   12696.190   213111.40    119244.40
   12697.160   214389.40    119677.40
   12698.140   216020.40    120257.40
   12699.130   216764.40    120281.40
   12700.140   217253.40    120127.40
   12701.160   217810.40    120055.40
   12702.190   218553.40    120004.40
   12703.240   219369.40    119973.40
   12704.290   220254.40    120001.40
   12705.360   221204.40    120038.40
   12706.440   221987.40    120022.40
   12707.530   222781.40    119975.40
   12708.640   223346.40    119863.40
   12709.750   223802.40    119847.40
   12710.880   223983.40    119836.40
   12712.020   223548.40    119704.40
   12713.180   223402.40    119865.40
   12714.340   223151.40    120011.40
   12715.520   222511.40    119920.40
   12716.710   222132.40    119894.40
   12717.910   221616.40    119752.40
   12719.130   221727.40    119831.40
   12720.350   221888.40    119865.40
   12721.590   221901.40    119827.40
   12722.840   221603.40    119718.40
   12724.100   221466.40    119727.40
   12725.380   221344.40    119759.40
   12726.670   221027.40    119826.40
   12727.960   220541.40    119805.40
   12729.280   220084.40    119790.40
   12730.600   219510.40    119696.40
   12731.940   219066.40    119722.40
   12733.280   218522.40    119644.40
   12734.640   218393.40    119758.40
   12736.020   217958.40    119687.40
   12737.400   217753.40    119712.40
   12738.800   217228.40    119512.40
   12740.210   216424.40    119112.40
   12741.630   217937.40    119948.40
   12743.060   217740.40    119821.40
   12744.510   217784.40    119677.40
   12745.960   218080.40    119626.40
   12747.430   218617.40    119574.40
   12748.920   219345.40    119591.40
   12750.410   219908.40    119495.40
   12751.920   220509.40    119437.40
   12753.440   221346.40    119507.40
   12754.970   222002.40    119522.40
   12756.510   222607.40    119538.40
   12758.060   223064.40    119467.40
   12759.630   223705.40    119477.40
   12761.210   224439.40    119508.40
   12762.800   225216.40    119530.40
   12764.410   225773.40    119488.40
   12766.020   226747.40    119714.40
   12767.650   227765.40    120045.40
   12769.290   227793.40    119963.40
   12770.940   227334.40    119757.40
   12772.610   226496.40    119300.40
   12774.290   228259.40    120342.40
   12775.970   227761.40    120200.40
   12777.680   227244.40    120046.40
   12779.390   226793.40    119950.40
   12781.110   226630.40    120015.40
   12782.850   226320.40    119973.40
   12784.600   225944.40    119917.40
   12786.360   225665.40    119874.40
   12788.140   225515.40    119976.40
   12789.920   225182.40    119950.40
   12791.720   224746.40    119915.40
   12793.540   224481.40    119960.40
   12795.360   224133.40    119995.40
   12797.190   223712.40    119930.40
   12799.040   223227.40    119830.40
   12800.900   223075.40    119814.40
   12802.770   222076.40    119204.40
   12804.660   224408.40    120425.40
   12806.550   223738.40    119998.40
   12808.460   223577.40    119879.40
   12810.380   223764.40    119929.40
   12812.310   224048.40    119956.40
   12814.260   224146.40    119839.40
   12816.210   224263.40    119679.40
   12818.180   224882.40    119645.40
   12820.170   225812.40    119744.40
   12822.160   226842.40    119782.40
   12824.170   227963.40    119907.40
   12826.180   228773.40    119812.40
   12828.210   229471.40    119740.40
   12830.250   230093.40    119710.40
   12832.310   230630.40    119690.40
   12834.380   230907.40    119703.40
   12836.460   231032.40    119670.40
   12838.550   230583.40    119368.40
   12840.650   230989.40    119537.40
   12842.760   231665.40    119888.40
   12844.890   231367.40    119748.40
   12847.030   230944.40    119559.40
   12849.180   230856.40    119508.40
   12851.350   231089.40    119643.40
   12853.520   231143.40    119643.40
   12855.710   229562.40    118850.40
   12857.910   232047.40    120118.40
   12860.130   231435.40    119816.40
   12862.350   231030.40    119654.40
   12864.590   230629.40    119545.40
   12866.840   230013.40    119304.40
   12869.100   229346.40    119090.40
   12871.370   231546.40    120396.40
   12873.660   231084.40    120251.40
   12875.960   230574.40    120029.40
   12878.270   230596.40    120073.40
   12880.590   230631.40    120059.40
   12882.920   230589.40    120071.40
   12885.270   230593.40    120057.40
   12887.630   230744.40    120122.40
   12890.000   230863.40    120017.40
   12892.380   231263.40    120052.40
   12894.780   231802.40    120059.40
   12897.190   232284.40    119976.40
   12899.610   233030.40    120039.40
   12902.040   233498.40    119995.40
   12904.480   233970.40    119931.40
   12906.940   234554.40    119962.40
   12909.410   234762.40    119818.40
   12911.890   235381.40    119936.40
   12914.380   235816.40    120007.40
   12916.880   235843.40    119882.40
   12919.400   235931.40    119794.40
   12921.930   236096.40    119807.40
   12924.470   236097.40    119781.40
   12927.030   236119.40    119773.40
   12929.590   236250.40    119800.40
   12932.170   236484.40    119902.40
   12934.760   236516.40    119861.40
   12937.360   236808.40    119915.40
   12939.980   237067.40    119901.40
   12942.610   236726.40    119639.40
   12945.240   237275.40    119819.40
   12947.900   237558.40    119859.40
   12950.560   237790.40    119860.40
   12953.230   237948.40    119831.40
   12955.920   237959.40    119739.40
   12958.620   238224.40    119785.40
   12961.330   238280.40    119687.40
   12964.060   238402.40    119695.40
   12966.790   238310.40    119567.40
   12969.540   238556.40    119670.40
   12972.300   238466.40    119622.40
   12975.080   238510.40    119617.40
   12977.860   238498.40    119584.40
   12980.660   238696.40    119643.40
   12983.470   238731.40    119654.40
   12986.290   238907.40    119699.40
   12989.130   238986.40    119634.40
   12991.970   238751.40    119391.40
   12994.830   239898.40    119811.40
   12997.700   240043.40    119707.40
   13000.580   239964.40    119519.40
   13003.480   240241.40    119517.40
   13006.380   240727.40    119609.40
   13009.300   242319.40    120193.40
   13012.230   242526.40    120103.40
   13015.180   242611.40    119958.40
   13018.130   242760.40    119832.40
   13021.100   243997.40    120265.40
   13024.080   244348.40    120302.40
   13027.070   244263.40    120097.40
   13030.080   244451.40    120023.40
   13033.090   244862.40    120082.40
   13036.120   245258.40    120070.40
   13039.160   245563.40    120093.40
   13042.220   245770.40    120004.40
   13045.280   245989.40    120003.40
   13048.360   246205.40    120064.40
   13051.450   246246.40    119981.40
   13054.550   246051.40    119879.40
   13057.670   246215.40    119878.40
   13060.790   246698.40    120030.40
   13063.930   246709.40    119962.40
   13067.080   246785.40    119959.40
   13070.240   247004.40    119987.40
   13073.420   247193.40    120020.40
   13076.600   247298.40    120010.40
   13079.800   247242.40    119858.40
   13083.010   247308.40    119781.40
   13086.240   247934.40    120000.40
   13089.470   248260.40    120016.40
   13092.720   248176.40    119842.40
   13095.980   248297.40    119743.40
   13099.250   248856.40    119842.40
   13102.540   249127.40    119827.40
   13105.840   249523.40    119829.40
   13109.140   249707.40    119804.40
   13112.470   250312.40    119893.40
   13115.800   250754.40    119938.40
   13119.140   250963.40    119917.40
   13122.500   250744.40    119708.40
   13125.870   251204.40    119766.40
   13129.250   251683.40    119879.40
   13132.650   251821.40    119808.40
   13136.050   251945.40    119742.40
   13139.470   252198.40    119762.40
   13142.900   252366.40    119729.40
   13146.350   252647.40    119679.40
   13149.800   252831.40    119663.40
   13153.270   253399.40    119815.40
   13156.750   253872.40    119848.40
   13160.240   253925.40    119760.40
   13163.740   253934.40    119609.40
   13167.260   254228.40    119604.40
   13170.790   254491.40    119618.40
   13174.330   255031.40    119730.40
   13177.880   255048.40    119567.40
   13181.440   255459.40    119650.40
   13185.020   255517.40    119546.40
   13188.610   255725.40    119545.40
   13192.210   255705.40    119380.40
   13195.820   255962.40    119399.40
   13199.450   256612.40    119603.40
   13203.090   256950.40    119630.40
   13206.740   256893.40    119495.40
   13210.400   257122.40    119479.40
   13214.070   257562.40    119557.40
   13217.760   256593.40    118972.40
   13221.460   258802.40    119844.40
   13225.170   258522.40    119607.40
   13228.890   258450.40    119402.40
   13232.630   258781.40    119418.40
   13236.370   259128.40    119484.40
   13240.130   259197.40    119362.40
   13243.910   259183.40    119266.40
   13247.690   259551.40    119274.40
   13251.490   259782.40    119233.40
   13255.290   260350.40    119345.40
   13259.110   260459.40    119253.40
   13262.950   260421.40    119071.40
   13266.790   259919.40    118720.40
   13270.650   257826.40    117543.40
   13274.520   257388.40    117175.40
   13278.400   261437.40    118869.40
   13282.290   261909.40    118911.40
   13286.200   261936.40    118772.40
   13290.110   263472.40    119357.40
   13294.040   264124.40    119511.40
   13297.990   263801.40    119193.40
   13301.940   263882.40    119085.40
   13305.910   265049.40    119493.40
   13309.890   265388.40    119514.40
   13313.880   265488.40    119420.40
   13317.880   265689.40    119379.40
   13321.900   265800.40    119299.40
   13325.920   265885.40    119202.40
   13329.960   266422.40    119292.40
   13334.010   267204.40    119513.40
   13338.080   267359.40    119432.40
   13342.150   267345.40    119301.40
   13346.240   267619.40    119276.40
   13350.340   268191.40    119387.40
   13354.460   268367.40    119318.40
   13358.580   268607.40    119306.40
   13362.720   268639.40    119159.40
   13366.870   268805.40    119122.40
   13371.030   269077.40    119089.40
   13375.200   269556.40    119151.40
   13379.390   270050.40    119237.40
   13383.580   270363.40    119238.40
   13387.790   270855.40    119302.40
   13392.020   272243.40    119781.40
   13396.250   272418.40    119702.40
   13400.500   272930.40    119770.40
   13404.760   273269.40    119797.40
