#XDI/1.1  GSE/1.0
# Column.1: energy eV
# Column.2: itrans
# Column.3: i0
# Scan.end_time: 2008-04-10 22:16:32
# Scan.start_time: 2008-04-10 21:58:50
# Element.symbol:  Se
# Element.edge:  K
# Facility.Name:  APS
# Beamline.Name:  13-BM-D
# Beamline.xray_source:  bending magnet
# Mono.dspacing:  3.13555
# Mono.name: Si 111
# Beamline.Storage_Ring_Current: 101.792 || S:SRcurrentAI.VAL
# Beamline.FOE_Mono_angle_readback: 9.0947 || 13BMA:m17.RBV
# Beamline.Mono_Energy_drive_val: 12508.0000 || 13BMA:E:Energy.VAL
# Beamline.Mono_Energy_readback: 12503.0242 || 13BMA:E:E_RBV
# Beamline.Mono_Beam_Offset: 20.0000 || 13BMA:E:height.VAL
# Beamline.I0_sensitivity_value: 5 || 13BMD:A3sens_num.VAL
# Beamline.I0_sensitivity_value: nA/V || 13BMD:A3sens_unit.VAL
# Beamline.I1_sensitivity_value: 20 || 13BMD:A2sens_num.VAL
# Beamline.I1_sensitivity_value: nA/V || 13BMD:A2sens_unit.VAL
# Beamline.FOE_Mono_Yout: 10.4439 || 13BMA:m10.VAL
# Beamline.FOE_Mono_Yin: 10.6474 || 13BMA:m11.VAL
# Beamline.FOE_Mono_Yup: 9.7047 || 13BMA:m12.VAL
# Beamline.FOE_Mono_Cage_Y: 0.000 || 13BMA:m13.VAL
# Beamline.FOE_Mono_Z: 64.134 || 13BMA:m14.VAL
# Beamline.FOE_Mono_angle: 9.0947 || 13BMA:m17.VAL
# Beamline.BMD_Horiz_Width: 5.000 || 13BMD:BMDHt2.C
# Beamline.BMD_Horiz_Center: -2.000 || 13BMD:BMDHt2.D
# Beamline.BMD_Vertical_Width: 0.500 || 13BMD:BMDVt2.C
# Beamline.BMD_Vertical_Center: -19.950 || 13BMD:BMDVt2.D
# Beamline.Sample_X: 326.174 || 13BMD:m70.VAL
# Beamline.Sample_Z__focus: 84.702 || 13BMD:m33.VAL
# Beamline.Sample_Y__height: 33.300 || 13BMD:m34.VAL
# ScanParameters.Start: Scan.Member: Value
# ScanParameters.E0: 12658.0
# ScanParameters.Legend: Start       Stop       Step       Npts       Time   Kspace?
# ScanParameters.Region1: -150.00    -10.000     5.0000     29.000     2.0000   0
# ScanParameters.Region2: -10.000     30.000    0.25000     161.00     2.0000   0
# ScanParameters.Region3: 2.8061     14.000   0.039978     281.00     2.0000   1
# ScanParameters.End: here
#-------------------------
#  energy  itrans  i0
   12508.000   559275.40    121961.40 
   12513.000   554974.40    120910.40 
   12518.000   551648.40    120177.40 
   12523.000   548592.40    119369.40 
   12528.000   550408.40    119664.40 
   12533.000   552350.40    120001.40 
   12538.000   551587.40    119744.40 
   12543.000   549955.40    119305.40 
   12548.000   550314.40    119301.40 
   12553.000   551479.40    119458.40 
   12558.000   551783.40    119437.40 
   12563.000   551697.40    119341.40 
   12568.000   552761.40    119495.40 
   12573.000   553541.40    119571.40 
   12578.000   553803.40    119526.40 
   12583.000   553011.40    119274.40 
   12588.000   552556.40    119078.40 
   12593.000   556051.40    119769.40 
   12598.000   555338.40    119531.40 
   12603.000   554659.40    119311.40 
   12608.000   555713.40    119477.40 
   12613.000   556547.40    119556.40 
   12618.000   556465.40    119474.40 
   12623.000   555855.40    119291.40 
   12628.000   556406.40    119360.40 
   12633.000   557247.40    119512.40 
   12638.000   556522.40    119345.40 
   12643.000   555033.40    119106.40 
   12648.000   554728.40    119222.40 
   12648.250   555577.40    119434.40 
   12648.500   556274.40    119601.40 
   12648.750   557246.40    119813.40 
   12649.000   557267.40    119833.40 
   12649.250   557311.40    119840.40 
   12649.500   556985.40    119809.40 
   12649.750   556555.40    119747.40 
   12650.000   556276.40    119683.40 
   12650.250   556048.40    119663.40 
   12650.500   555929.40    119686.40 
   12650.750   556389.40    119786.40 
   12651.000   555980.40    119720.40 
   12651.250   556131.40    119805.40 
   12651.500   555505.40    119695.40 
   12651.750   555292.40    119663.40 
   12652.000   555234.40    119708.40 
   12652.250   555042.40    119671.40 
   12652.500   554261.40    119570.40 
   12652.750   554538.40    119674.40 
   12653.000   553748.40    119556.40 
   12653.250   553577.40    119541.40 
   12653.500   553328.40    119538.40 
   12653.750   552020.40    119336.40 
   12654.000   552164.40    119409.40 
   12654.250   551684.40    119389.40 
   12654.500   554932.40    120168.40 
   12654.750   555266.40    120296.40 
   12655.000   555279.40    120381.40 
   12655.250   555035.40    120364.40 
   12655.500   553979.40    120275.40 
   12655.750   553069.40    120193.40 
   12656.000   552467.40    120152.40 
   12656.250   551689.40    120131.40 
   12656.500   551227.40    120146.40 
   12656.750   550098.40    120086.40 
   12657.000   549520.40    120063.40 
   12657.250   548906.40    120143.40 
   12657.500   548118.40    120134.40 
   12657.750   546952.40    120105.40 
   12658.000   545781.40    120102.40 
   12658.250   544520.40    120010.40 
   12658.500   543424.40    120064.40 
   12658.750   542142.40    120043.40 
   12659.000   540336.40    119979.40 
   12659.250   538582.40    120036.40 
   12659.500   536521.40    119929.40 
   12659.750   533836.40    119863.40 
   12660.000   532408.40    119979.40 
   12660.250   528918.40    119935.40 
   12660.500   526326.40    119977.40 
   12660.750   521651.40    119923.40 
   12661.000   516260.40    119931.40 
   12661.250   511760.40    119991.40 
   12661.500   503959.40    119934.40 
   12661.750   497017.40    119868.40 
   12662.000   487186.40    119937.40 
   12662.250   478238.40    119851.40 
   12662.500   465064.40    119853.40 
   12662.750   448437.40    119819.40 
   12663.000   435173.40    119862.40 
   12663.250   414199.40    119912.40 
   12663.500   397297.40    119856.40 
   12663.750   372088.40    119807.40 
   12664.000   346593.40    119927.40 
   12664.250   328561.40    119875.40 
   12664.500   305883.40    119785.40 
   12664.750   292449.40    119735.40 
   12665.000   280648.40    119736.40 
   12665.250   277049.40    119789.40 
   12665.500   279649.40    119863.40 
   12665.750   289728.40    119753.40 
   12666.000   301240.40    119755.40 
   12666.250   321226.40    119656.40 
   12666.500   337714.40    119619.40 
   12666.750   360302.40    119681.40 
   12667.000   375962.40    119653.40 
   12667.250   395947.40    119653.40 
   12667.500   411316.40    119550.40 
   12667.750   422547.40    119924.40 
   12668.000   435053.40    120294.40 
   12668.250   440569.40    120172.40 
   12668.500   447095.40    120180.40 
   12668.750   450869.40    120153.40 
   12669.000   455186.40    120107.40 
   12669.250   459053.40    120181.40 
   12669.500   461307.40    120190.40 
   12669.750   463525.40    120065.40 
   12670.000   465471.40    120136.40 
   12670.250   466827.40    120088.40 
   12670.500   467561.40    119995.40 
   12670.750   468832.40    120154.40 
   12671.000   468654.40    120047.40 
   12671.250   468768.40    120090.40 
   12671.500   467975.40    120019.40 
   12671.750   467349.40    120021.40 
   12672.000   467021.40    120138.40 
   12672.250   466078.40    120077.40 
   12672.500   464762.40    119970.40 
   12672.750   463926.40    119968.40 
   12673.000   463123.40    119920.40 
   12673.250   463116.40    120040.40 
   12673.500   463018.40    120053.40 
   12673.750   463159.40    120060.40 
   12674.000   463502.40    120100.40 
   12674.250   463702.40    119930.40 
   12674.500   464488.40    119848.40 
   12674.750   465987.40    119999.40 
   12675.000   467672.40    120015.40 
   12675.250   469143.40    120079.40 
   12675.500   470294.40    120039.40 
   12675.750   470738.40    119880.40 
   12676.000   472046.40    119969.40 
   12676.250   472590.40    119888.40 
   12676.500   473333.40    119997.40 
   12676.750   473172.40    119897.40 
   12677.000   472847.40    119809.40 
   12677.250   472873.40    119933.40 
   12677.500   472233.40    119889.40 
   12677.750   471371.40    119915.40 
   12678.000   470061.40    119937.40 
   12678.250   468566.40    119900.40 
   12678.500   466542.40    119910.40 
   12678.750   464585.40    119868.40 
   12679.000   461752.40    119749.40 
   12679.250   459957.40    119798.40 
   12679.500   457423.40    119778.40 
   12679.750   455730.40    119712.40 
   12680.000   453842.40    119727.40 
   12680.250   452609.40    119791.40 
   12680.500   452074.40    119810.40 
   12680.750   451529.40    119794.40 
   12681.000   451194.40    119749.40 
   12681.250   453800.40    120368.40 
   12681.500   453660.40    120234.40 
   12681.750   454639.40    120346.40 
   12682.000   455704.40    120433.40 
   12682.250   456142.40    120386.40 
   12682.500   456786.40    120301.40 
   12682.750   456954.40    120152.40 
   12683.000   457773.40    120111.40 
   12683.250   459116.40    120263.40 
   12683.500   460083.40    120252.40 
   12683.750   461331.40    120279.40 
   12684.000   462279.40    120327.40 
   12684.250   463266.40    120312.40 
   12684.500   464012.40    120278.40 
   12684.750   464554.40    120187.40 
   12685.000   464980.40    120110.40 
   12685.250   466394.40    120263.40 
   12685.500   466913.40    120231.40 
   12685.750   467386.40    120196.40 
   12686.000   467735.40    120116.40 
   12686.250   468207.40    120116.40 
   12686.500   469218.40    120216.40 
   12686.750   469353.40    120130.40 
   12687.000   469983.40    120167.40 
   12687.250   470513.40    120194.40 
   12687.500   470831.40    120124.40 
   12687.750   471562.40    120157.40 
   12688.000   472362.40    120181.40 
   12688.860   473957.40    120009.40 
   12689.730   476539.40    120004.40 
   12690.620   478883.40    119989.40 
   12691.520   481550.40    120012.40 
   12692.430   484210.40    120029.40 
   12693.350   486272.40    119985.40 
   12694.280   487772.40    119867.40 
   12695.230   489192.40    119820.40 
   12696.190   490409.40    119755.40 
   12697.160   491207.40    119632.40 
   12698.140   494253.40    120051.40 
   12699.130   495638.40    120034.40 
   12700.140   497011.40    120018.40 
   12701.160   497765.40    119929.40 
   12702.190   498616.40    119840.40 
   12703.240   499618.40    119864.40 
   12704.290   499969.40    119839.40 
   12705.360   500056.40    119895.40 
   12706.440   498838.40    119795.40 
   12707.530   497451.40    119810.40 
   12708.640   495216.40    119792.40 
   12709.750   492884.40    119717.40 
   12710.880   491157.40    119791.40 
   12712.020   489694.40    119832.40 
   12713.180   489095.40    119867.40 
   12714.340   488814.40    119953.40 
   12715.520   487542.40    119745.40 
   12716.710   487093.40    119728.40 
   12717.910   487271.40    119822.40 
   12719.130   486772.40    119788.40 
   12720.350   486374.40    119765.40 
   12721.590   486046.40    119838.40 
   12722.840   484476.40    119708.40 
   12724.100   483741.40    119787.40 
   12725.380   483013.40    119815.40 
   12726.670   482686.40    119784.40 
   12727.960   482909.40    119802.40 
   12729.280   482646.40    119653.40 
   12730.600   482319.40    119601.40 
   12731.940   482452.40    119699.40 
   12733.280   481495.40    119611.40 
   12734.640   480162.40    119491.40 
   12736.020   479077.40    119450.40 
   12737.400   478214.40    119507.40 
   12738.800   477224.40    119483.40 
   12740.210   474644.40    119086.40 
   12741.630   476987.40    119902.40 
   12743.060   475519.40    119650.40 
   12744.510   474961.40    119509.40 
   12745.960   475339.40    119537.40 
   12747.430   475769.40    119572.40 
   12748.920   475919.40    119536.40 
   12750.410   475865.40    119450.40 
   12751.920   475822.40    119368.40 
   12753.440   476029.40    119325.40 
   12754.970   477206.40    119494.40 
   12756.510   477742.40    119520.40 
   12758.060   478114.40    119496.40 
   12759.630   477923.40    119349.40 
   12761.210   478311.40    119321.40 
   12762.800   479181.40    119390.40 
   12764.410   480345.40    119567.40 
   12766.020   479938.40    119336.40 
   12767.650   480153.40    119300.40 
   12769.290   480426.40    119260.40 
   12770.940   480346.40    119168.40 
   12772.610   478529.40    118617.40 
   12774.290   482349.40    119528.40 
   12775.970   482609.40    119538.40 
   12777.680   482080.40    119291.40 
   12779.390   482570.40    119233.40 
   12781.110   483943.40    119386.40 
   12782.850   484980.40    119408.40 
   12784.600   485764.40    119371.40 
   12786.360   486137.40    119264.40 
   12788.140   486652.40    119188.40 
   12789.920   487131.40    119145.40 
   12791.720   487815.40    119178.40 
   12793.540   489760.40    119504.40 
   12795.360   491960.40    119933.40 
   12797.190   492060.40    119889.40 
   12799.040   491679.40    119749.40 
   12800.900   491107.40    119508.40 
   12802.770   488887.40    118901.40 
   12804.660   494553.40    120224.40 
   12806.550   494099.40    120099.40 
   12808.460   493035.40    119828.40 
   12810.380   492913.40    119820.40 
   12812.310   491966.40    119631.40 
   12814.260   491621.40    119545.40 
   12816.210   492024.40    119672.40 
   12818.180   492115.40    119765.40 
   12820.170   491889.40    119714.40 
   12822.160   491699.40    119676.40 
   12824.170   491193.40    119610.40 
   12826.180   491669.40    119763.40 
   12828.210   491199.40    119625.40 
   12830.250   491256.40    119648.40 
   12832.310   491637.40    119721.40 
   12834.380   491426.40    119676.40 
   12836.460   491148.40    119631.40 
   12838.550   489720.40    119306.40 
   12840.650   489058.40    119178.40 
   12842.760   491803.40    119865.40 
   12844.890   491211.40    119736.40 
   12847.030   490848.40    119667.40 
   12849.180   490867.40    119620.40 
   12851.350   490611.40    119546.40 
   12853.520   489892.40    119383.40 
   12855.710   487432.40    118768.40 
   12857.910   491613.40    119769.40 
   12860.130   491303.40    119710.40 
   12862.350   491039.40    119634.40 
   12864.590   491047.40    119550.40 
   12866.840   490664.40    119400.40 
   12869.100   488126.40    118753.40 
   12871.370   492276.40    119749.40 
   12873.660   491621.40    119538.40 
   12875.960   490689.40    119251.40 
   12878.270   491592.40    119441.40 
   12880.590   491729.40    119402.40 
   12882.920   492094.40    119440.40 
   12885.270   492144.40    119382.40 
   12887.630   491985.40    119277.40 
   12890.000   492148.40    119265.40 
   12892.380   492498.40    119293.40 
   12894.780   492377.40    119213.40 
   12897.190   493192.40    119316.40 
   12899.610   493292.40    119249.40 
   12902.040   493617.40    119205.40 
   12904.480   494398.40    119265.40 
   12906.940   495059.40    119334.40 
   12909.410   498213.40    119960.40 
   12911.890   498781.40    119949.40 
   12914.380   498807.40    119867.40 
   12916.880   499324.40    119915.40 
   12919.400   499472.40    119891.40 
   12921.930   499132.40    119779.40 
   12924.470   499501.40    119750.40 
   12927.030   499680.40    119728.40 
   12929.590   499961.40    119728.40 
   12932.170   500515.40    119813.40 
   12934.760   500042.40    119685.40 
   12937.360   501102.40    119908.40 
   12939.980   500581.40    119730.40 
   12942.610   500062.40    119569.40 
   12945.240   501745.40    119864.40 
   12947.900   501797.40    119817.40 
   12950.560   501474.40    119703.40 
   12953.230   501646.40    119676.40 
   12955.920   501451.40    119568.40 
   12958.620   502388.40    119762.40 
   12961.330   502202.40    119680.40 
   12964.060   501797.40    119528.40 
   12966.790   501991.40    119528.40 
   12969.540   503096.40    119716.40 
   12972.300   503009.40    119655.40 
   12975.080   503200.40    119679.40 
   12977.860   503090.40    119621.40 
   12980.660   503058.40    119586.40 
   12983.470   503554.40    119650.40 
   12986.290   503609.40    119611.40 
   12989.130   503802.40    119628.40 
   12991.970   502926.40    119393.40 
   12994.830   503736.40    119568.40 
   12997.700   503985.40    119584.40 
   13000.580   503750.40    119500.40 
   13003.480   504336.40    119611.40 
   13006.380   503877.40    119448.40 
   13009.300   504095.40    119474.40 
   13012.230   504893.40    119583.40 
   13015.180   504671.40    119466.40 
   13018.130   503604.40    119162.40 
   13021.100   505855.40    119621.40 
   13024.080   505777.40    119565.40 
   13027.070   506141.40    119597.40 
   13030.080   505930.40    119490.40 
   13033.090   505766.40    119379.40 
   13036.120   506487.40    119456.40 
   13039.160   506884.40    119517.40 
   13042.220   506737.40    119414.40 
   13045.280   506896.40    119379.40 
   13048.360   506728.40    119285.40 
   13051.450   507698.40    119457.40 
   13054.550   508049.40    119451.40 
   13057.670   509783.40    119761.40 
   13060.790   510828.40    119919.40 
   13063.930   510630.40    119852.40 
   13067.080   510521.40    119741.40 
   13070.240   511691.40    119898.40 
   13073.420   511593.40    119806.40 
   13076.600   512353.40    119901.40 
   13079.800   512066.40    119732.40 
   13083.010   512371.40    119739.40 
   13086.240   513558.40    119961.40 
   13089.470   513543.40    119849.40 
   13092.720   513788.40    119839.40 
   13095.980   513932.40    119801.40 
   13099.250   513921.40    119723.40 
   13102.540   514105.40    119692.40 
   13105.840   514386.40    119699.40 
   13109.140   515024.40    119787.40 
   13112.470   515337.40    119778.40 
   13115.800   515511.40    119749.40 
   13119.140   515778.40    119741.40 
   13122.500   515528.40    119651.40 
   13125.870   515793.40    119612.40 
   13129.250   516465.40    119703.40 
   13132.650   516755.40    119716.40 
   13136.050   517234.40    119759.40 
   13139.470   517314.40    119704.40 
   13142.900   517888.40    119778.40 
   13146.350   517702.40    119700.40 
   13149.800   517690.40    119626.40 
   13153.270   518205.40    119658.40 
   13156.750   518339.40    119666.40 
   13160.240   517825.40    119461.40 
   13163.740   518580.40    119573.40 
   13167.260   518550.40    119506.40 
   13170.790   518975.40    119548.40 
   13174.330   519277.40    119576.40 
   13177.880   518963.40    119429.40 
   13181.440   519540.40    119499.40 
   13185.020   519952.40    119532.40 
   13188.610   520029.40    119484.40 
   13192.210   520909.40    119629.40 
   13195.820   520338.40    119425.40 
   13199.450   520426.40    119414.40 
   13203.090   520480.40    119346.40 
   13206.740   521284.40    119462.40 
   13210.400   521749.40    119504.40 
   13214.070   521758.40    119446.40 
   13217.760   519580.40    118856.40 
   13221.460   523823.40    119770.40 
   13225.170   522947.40    119476.40 
   13228.890   522498.40    119286.40 
   13232.630   522915.40    119345.40 
   13236.370   523523.40    119387.40 
   13240.130   524694.40    119611.40 
   13243.910   526481.40    119949.40 
   13247.690   526111.40    119794.40 
   13251.490   526314.40    119738.40 
   13255.290   527099.40    119851.40 
   13259.110   527711.40    119923.40 
   13262.950   527618.40    119816.40 
   13266.790   526221.40    119416.40 
   13270.650   520933.40    118166.40 
   13274.520   518805.40    117566.40 
   13278.400   526405.40    119235.40 
   13282.290   528035.40    119533.40 
   13286.200   526933.40    119194.40 
   13290.110   529517.40    119690.40 
   13294.040   530688.40    119875.40 
   13297.990   530394.40    119737.40 
   13301.940   530850.40    119743.40 
   13305.910   532501.40    120097.40 
   13309.890   532908.40    120074.40 
   13313.880   533378.40    120083.40 
   13317.880   533642.40    120042.40 
   13321.900   532855.40    119813.40 
   13325.920   532717.40    119694.40 
   13329.960   532854.40    119657.40 
   13334.010   534066.40    119862.40 
   13338.080   534486.40    119899.40 
   13342.150   535208.40    119979.40 
   13346.240   535961.40    120061.40 
   13350.340   536184.40    120040.40 
   13354.460   535675.40    119853.40 
   13358.580   535623.40    119768.40 
   13362.720   534942.40    119570.40 
   13366.870   535579.40    119625.40 
   13371.030   535885.40    119612.40 
   13375.200   536567.40    119682.40 
   13379.390   537140.40    119751.40 
   13383.580   537766.40    119794.40 
   13387.790   537761.40    119736.40 
   13392.020   538121.40    119776.40 
   13396.250   538894.40    119877.40 
   13400.500   538546.40    119712.40 
   13404.760   538285.40    119580.40 
