#XDI/1.1  GSE/1.0
# Column.1: energy eV
# Column.2: itrans
# Column.3: i0
# Scan.end_time: 2008-04-10 22:52:23
# Scan.start_time: 2008-04-10 22:34:40
# Element.symbol:  Se
# Element.edge:  K
# Facility.Name:  APS
# Beamline.Name:  13-BM-D
# Beamline.xray_source:  bending magnet
# Mono.dspacing:  3.13555
# Mono.name: Si 111
# Beamline.Storage_Ring_Current: 101.821 || S:SRcurrentAI.VAL
# Beamline.FOE_Mono_angle_readback: 9.0947 || 13BMA:m17.RBV
# Beamline.Mono_Energy_drive_val: 12508.0000 || 13BMA:E:Energy.VAL
# Beamline.Mono_Energy_readback: 12503.0242 || 13BMA:E:E_RBV
# Beamline.Mono_Beam_Offset: 20.0000 || 13BMA:E:height.VAL
# Beamline.I0_sensitivity_value: 5 || 13BMD:A3sens_num.VAL
# Beamline.I0_sensitivity_value: nA/V || 13BMD:A3sens_unit.VAL
# Beamline.I1_sensitivity_value: 20 || 13BMD:A2sens_num.VAL
# Beamline.I1_sensitivity_value: nA/V || 13BMD:A2sens_unit.VAL
# Beamline.FOE_Mono_Yout: 10.4439 || 13BMA:m10.VAL
# Beamline.FOE_Mono_Yin: 10.6474 || 13BMA:m11.VAL
# Beamline.FOE_Mono_Yup: 9.7047 || 13BMA:m12.VAL
# Beamline.FOE_Mono_Cage_Y: 0.000 || 13BMA:m13.VAL
# Beamline.FOE_Mono_Z: 64.134 || 13BMA:m14.VAL
# Beamline.FOE_Mono_angle: 9.0947 || 13BMA:m17.VAL
# Beamline.BMD_Horiz_Width: 5.000 || 13BMD:BMDHt2.C
# Beamline.BMD_Horiz_Center: -2.000 || 13BMD:BMDHt2.D
# Beamline.BMD_Vertical_Width: 0.500 || 13BMD:BMDVt2.C
# Beamline.BMD_Vertical_Center: -19.950 || 13BMD:BMDVt2.D
# Beamline.Sample_X: 326.174 || 13BMD:m70.VAL
# Beamline.Sample_Z__focus: 73.002 || 13BMD:m33.VAL
# Beamline.Sample_Y__height: 33.900 || 13BMD:m34.VAL
# ScanParameters.Start: Scan.Member: Value
# ScanParameters.E0: 12658.0
# ScanParameters.Legend: Start       Stop       Step       Npts       Time   Kspace?
# ScanParameters.Region1: -150.00    -10.000     5.0000     29.000     2.0000   0
# ScanParameters.Region2: -10.000     30.000    0.25000     161.00     2.0000   0
# ScanParameters.Region3: 2.8061     14.000   0.039978     281.00     2.0000   1
# ScanParameters.End: here
#-------------------------
#  energy  itrans  i0
   12508.000   454063.40    121679.40 
   12513.000   448544.40    120095.40 
   12518.000   444219.40    118887.40 
   12523.000   445180.40    118917.40 
   12528.000   444787.40    118739.40 
   12533.000   446684.40    119126.40 
   12538.000   447885.40    119356.40 
   12543.000   450279.40    119835.40 
   12548.000   449858.40    119656.40 
   12553.000   449586.40    119453.40 
   12558.000   449541.40    119352.40 
   12563.000   450609.40    119526.40 
   12568.000   451379.40    119629.40 
   12573.000   451001.40    119385.40 
   12578.000   452026.40    119575.40 
   12583.000   452771.40    119671.40 
   12588.000   451370.40    119225.40 
   12593.000   453048.40    119549.40 
   12598.000   453497.40    119600.40 
   12603.000   453684.40    119564.40 
   12608.000   454118.40    119637.40 
   12613.000   453157.40    119289.40 
   12618.000   453569.40    119365.40 
   12623.000   454232.40    119535.40 
   12628.000   453253.40    119348.40 
   12633.000   452378.40    119207.40 
   12638.000   452025.40    119351.40 
   12643.000   450664.40    119550.40 
   12648.000   445757.40    119477.40 
   12648.250   445975.40    119618.40 
   12648.500   445874.40    119708.40 
   12648.750   445726.40    119732.40 
   12649.000   445436.40    119778.40 
   12649.250   445418.40    119862.40 
   12649.500   444870.40    119866.40 
   12649.750   444249.40    119779.40 
   12650.000   443656.40    119795.40 
   12650.250   442911.40    119755.40 
   12650.500   442532.40    119763.40 
   12650.750   441854.40    119800.40 
   12651.000   440949.40    119703.40 
   12651.250   440275.40    119709.40 
   12651.500   439055.40    119656.40 
   12651.750   438570.40    119689.40 
   12652.000   437919.40    119798.40 
   12652.250   436608.40    119638.40 
   12652.500   435316.40    119621.40 
   12652.750   434298.40    119573.40 
   12653.000   433135.40    119650.40 
   12653.250   431375.40    119558.40 
   12653.500   430029.40    119506.40 
   12653.750   428039.40    119424.40 
   12654.000   426468.40    119356.40 
   12654.250   424873.40    119445.40 
   12654.500   423156.40    119568.40 
   12654.750   421586.40    119641.40 
   12655.000   419374.40    119765.40 
   12655.250   417015.40    119713.40 
   12655.500   415235.40    120095.40 
   12655.750   413536.40    120415.40 
   12656.000   408366.40    120143.40 
   12656.250   403519.40    120081.40 
   12656.500   399516.40    120153.40 
   12656.750   392991.40    120099.40 
   12657.000   388401.40    120178.40 
   12657.250   380560.40    120225.40 
   12657.500   373333.40    120092.40 
   12657.750   363608.40    120113.40 
   12658.000   352264.40    120063.40 
   12658.250   342908.40    120182.40 
   12658.500   327830.40    120131.40 
   12658.750   315823.40    120131.40 
   12659.000   297874.40    120091.40 
   12659.250   275317.40    119909.40 
   12659.500   258169.40    119921.40 
   12659.750   232874.40    120029.40 
   12660.000   213385.40    120091.40 
   12660.250   184694.40    120061.40 
   12660.500   163537.40    119892.40 
   12660.750   137315.40    119919.40 
   12661.000   115410.40    119976.40 
   12661.250   102157.40    119952.40 
   12661.500    90954.40    119964.40 
   12661.750    86863.40    120037.40 
   12662.000    87105.40    119992.40 
   12662.250    90791.40    119951.40 
   12662.500    99525.40    119947.40 
   12662.750   112064.40    119870.40 
   12663.000   122672.40    119933.40 
   12663.250   138356.40    119919.40 
   12663.500   149208.40    119876.40 
   12663.750   163381.40    119771.40 
   12664.000   175619.40    119776.40 
   12664.250   183379.40    119863.40 
   12664.500   192038.40    119909.40 
   12664.750   196973.40    119803.40 
   12665.000   202515.40    119817.40 
   12665.250   205843.40    119688.40 
   12665.500   210237.40    119719.40 
   12665.750   214140.40    119779.40 
   12666.000   216855.40    119803.40 
   12666.250   220501.40    119829.40 
   12666.500   222784.40    119744.40 
   12666.750   225726.40    119683.40 
   12667.000   227664.40    119661.40 
   12667.250   230042.40    119660.40 
   12667.500   231717.40    119636.40 
   12667.750   232885.40    119768.40 
   12668.000   233329.40    119642.40 
   12668.250   233438.40    119672.40 
   12668.500   233101.40    119652.40 
   12668.750   232948.40    119812.40 
   12669.000   232946.40    120298.40 
   12669.250   231669.40    120199.40 
   12669.500   231037.40    120289.40 
   12669.750   230057.40    120291.40 
   12670.000   229126.40    120148.40 
   12670.250   228436.40    120149.40 
   12670.500   227888.40    120114.40 
   12670.750   227495.40    120177.40 
   12671.000   227192.40    120222.40 
   12671.250   227011.40    120234.40 
   12671.500   226785.40    120111.40 
   12671.750   227105.40    120206.40 
   12672.000   227385.40    120115.40 
   12672.250   227834.40    120090.40 
   12672.500   228795.40    120118.40 
   12672.750   229784.40    120084.40 
   12673.000   230722.40    120110.40 
   12673.250   232129.40    120114.40 
   12673.500   233102.40    120126.40 
   12673.750   234297.40    120051.40 
   12674.000   235146.40    119992.40 
   12674.250   236320.40    119937.40 
   12674.500   237789.40    120009.40 
   12674.750   238711.40    120002.40 
   12675.000   240250.40    120052.40 
   12675.250   241288.40    120045.40 
   12675.500   242745.40    119988.40 
   12675.750   244149.40    120038.40 
   12676.000   245973.40    120033.40 
   12676.250   247817.40    120022.40 
   12676.500   248933.40    119909.40 
   12676.750   250696.40    119737.40 
   12677.000   252472.40    119929.40 
   12677.250   254693.40    120017.40 
   12677.500   256234.40    120169.40 
   12677.750   257803.40    120131.40 
   12678.000   258973.40    119969.40 
   12678.250   259803.40    119892.40 
   12678.500   261105.40    119910.40 
   12678.750   261877.40    119944.40 
   12679.000   262868.40    119918.40 
   12679.250   263713.40    119987.40 
   12679.500   264405.40    119943.40 
   12679.750   264918.40    119932.40 
   12680.000   265447.40    119832.40 
   12680.250   266187.40    119825.40 
   12680.500   266721.40    119838.40 
   12680.750   267251.40    119839.40 
   12681.000   267762.40    119890.40 
   12681.250   268115.40    119855.40 
   12681.500   268477.40    119939.40 
   12681.750   268258.40    119817.40 
   12682.000   267764.40    119657.40 
   12682.250   267642.40    119678.40 
   12682.500   267356.40    119729.40 
   12682.750   267049.40    119775.40 
   12683.000   266258.40    119653.40 
   12683.250   265643.40    119643.40 
   12683.500   264801.40    119648.40 
   12683.750   263938.40    119561.40 
   12684.000   263427.40    119634.40 
   12684.250   262663.40    119655.40 
   12684.500   262201.40    119688.40 
   12684.750   261272.40    119594.40 
   12685.000   260822.40    119556.40 
   12685.250   260328.40    119480.40 
   12685.500   260105.40    119505.40 
   12685.750   260148.40    119566.40 
   12686.000   260431.40    119618.40 
   12686.250   260638.40    119591.40 
   12686.500   260831.40    119481.40 
   12686.750   261255.40    119469.40 
   12687.000   261971.40    119446.40 
   12687.250   262766.40    119501.40 
   12687.500   263992.40    119583.40 
   12687.750   265045.40    119581.40 
   12688.000   265782.40    119504.40 
   12688.860   269643.40    119486.40 
   12689.730   273640.40    119360.40 
   12690.620   276849.40    119386.40 
   12691.520   279418.40    119440.40 
   12692.430   280636.40    119503.40 
   12693.350   280568.40    119419.40 
   12694.280   279874.40    119413.40 
   12695.230   279310.40    119316.40 
   12696.190   279590.40    119213.40 
   12697.160   280872.40    119137.40 
   12698.140   284214.40    119543.40 
   12699.130   287111.40    119607.40 
   12700.140   288557.40    119508.40 
   12701.160   288891.40    119365.40 
   12702.190   288675.40    119278.40 
   12703.240   288085.40    119357.40 
   12704.290   287078.40    119348.40 
   12705.360   286383.40    119364.40 
   12706.440   285514.40    119264.40 
   12707.530   285257.40    119295.40 
   12708.640   284573.40    119160.40 
   12709.750   284199.40    119321.40 
   12710.880   282622.40    119242.40 
   12712.020   280493.40    119122.40 
   12713.180   278559.40    119245.40 
   12714.340   276479.40    119284.40 
   12715.520   274464.40    119179.40 
   12716.710   272829.40    119210.40 
   12717.910   271137.40    119111.40 
   12719.130   271066.40    119560.40 
   12720.350   270640.40    119822.40 
   12721.590   269359.40    119673.40 
   12722.840   268152.40    119791.40 
   12724.100   266168.40    119777.40 
   12725.380   264117.40    119694.40 
   12726.670   262483.40    119730.40 
   12727.960   261235.40    119678.40 
   12729.280   260849.40    119733.40 
   12730.600   260632.40    119709.40 
   12731.940   260515.40    119653.40 
   12733.280   260755.40    119668.40 
   12734.640   260966.40    119567.40 
   12736.020   262046.40    119632.40 
   12737.400   263203.40    119608.40 
   12738.800   263712.40    119376.40 
   12740.210   263276.40    119026.40 
   12741.630   265594.40    120120.40 
   12743.060   264683.40    119844.40 
   12744.510   263840.40    119671.40 
   12745.960   263410.40    119586.40 
   12747.430   263250.40    119581.40 
   12748.920   263447.40    119541.40 
   12750.410   263891.40    119488.40 
   12751.920   264652.40    119530.40 
   12753.440   265445.40    119593.40 
   12754.970   265903.40    119490.40 
   12756.510   266777.40    119504.40 
   12758.060   267653.40    119517.40 
   12759.630   268269.40    119405.40 
   12761.210   269240.40    119442.40 
   12762.800   269872.40    119388.40 
   12764.410   270507.40    119432.40 
   12766.020   271137.40    119506.40 
   12767.650   271514.40    119481.40 
   12769.290   272095.40    119483.40 
   12770.940   272422.40    119212.40 
   12772.610   271806.40    118577.40 
   12774.290   275452.40    119769.40 
   12775.970   275976.40    119669.40 
   12777.680   276436.40    119539.40 
   12779.390   276767.40    119406.40 
   12781.110   277244.40    119372.40 
   12782.850   277639.40    119288.40 
   12784.600   278238.40    119254.40 
   12786.360   278797.40    119261.40 
   12788.140   279360.40    119343.40 
   12789.920   279438.40    119244.40 
   12791.720   279566.40    119267.40 
   12793.540   279440.40    119218.40 
   12795.360   279350.40    119243.40 
   12797.190   279216.40    119241.40 
   12799.040   278841.40    119147.40 
   12800.900   278687.40    119143.40 
   12802.770   278476.40    119094.40 
   12804.660   281182.40    120307.40 
   12806.550   280699.40    120154.40 
   12808.460   280119.40    119968.40 
   12810.380   279580.40    119807.40 
   12812.310   279030.40    119635.40 
   12814.260   278793.40    119619.40 
   12816.210   278674.40    119625.40 
   12818.180   278919.40    119822.40 
   12820.170   278403.40    119732.40 
   12822.160   277521.40    119547.40 
   12824.170   277181.40    119572.40 
   12826.180   277006.40    119684.40 
   12828.210   276681.40    119694.40 
   12830.250   276491.40    119625.40 
   12832.310   276225.40    119556.40 
   12834.380   276503.40    119647.40 
   12836.460   276468.40    119574.40 
   12838.550   276356.40    119432.40 
   12840.650   276097.40    119261.40 
   12842.760   277568.40    119868.40 
   12844.890   277330.40    119743.40 
   12847.030   276911.40    119618.40 
   12849.180   276667.40    119530.40 
   12851.350   276967.40    119597.40 
   12853.520   276954.40    119504.40 
   12855.710   275565.40    118882.40 
   12857.910   278722.40    120076.40 
   12860.130   278266.40    119739.40 
   12862.350   278211.40    119573.40 
   12864.590   278364.40    119516.40 
   12866.840   278194.40    119280.40 
   12869.100   277299.40    118767.40 
   12871.370   279748.40    119650.40 
   12873.660   279704.40    119517.40 
   12875.960   279893.40    119459.40 
   12878.270   280269.40    119463.40 
   12880.590   280606.40    119403.40 
   12882.920   281041.40    119363.40 
   12885.270   281512.40    119326.40 
   12887.630   282317.40    119389.40 
   12890.000   282690.40    119389.40 
   12892.380   283157.40    119389.40 
   12894.780   283257.40    119272.40 
   12897.190   283610.40    119279.40 
   12899.610   284103.40    119325.40 
   12902.040   284440.40    119383.40 
   12904.480   284592.40    119323.40 
   12906.940   284615.40    119272.40 
   12909.410   284697.40    119189.40 
   12911.890   285032.40    119208.40 
   12914.380   285615.40    119341.40 
   12916.880   285624.40    119221.40 
   12919.400   287327.40    119813.40 
   12921.930   287627.40    119811.40 
   12924.470   287800.40    119813.40 
   12927.030   288273.40    119875.40 
   12929.590   288746.40    119975.40 
   12932.170   288487.40    119845.40 
   12934.760   288414.40    119766.40 
   12937.360   288704.40    119853.40 
   12939.980   288709.40    119892.40 
   12942.610   288484.40    119728.40 
   12945.240   288949.40    119892.40 
   12947.900   288777.40    119786.40 
   12950.560   288894.40    119775.40 
   12953.230   288943.40    119723.40 
   12955.920   289301.40    119802.40 
   12958.620   289351.40    119795.40 
   12961.330   289127.40    119670.40 
   12964.060   289177.40    119672.40 
   12966.790   288733.40    119471.40 
   12969.540   289324.40    119679.40 
   12972.300   289725.40    119778.40 
   12975.080   290112.40    119879.40 
   12977.860   290088.40    119787.40 
   12980.660   290012.40    119688.40 
   12983.470   290175.40    119634.40 
   12986.290   290522.40    119688.40 
   12989.130   290617.40    119625.40 
   12991.970   290487.40    119483.40 
   12994.830   291014.40    119564.40 
   12997.700   291180.40    119567.40 
   13000.580   291391.40    119546.40 
   13003.480   291463.40    119449.40 
   13006.380   292053.40    119575.40 
   13009.300   292658.40    119724.40 
   13012.230   292712.40    119617.40 
   13015.180   292894.40    119553.40 
   13018.130   292577.40    119342.40 
   13021.100   293839.40    119687.40 
   13024.080   294239.40    119740.40 
   13027.070   294224.40    119590.40 
   13030.080   294342.40    119507.40 
   13033.090   294662.40    119474.40 
   13036.120   295014.40    119465.40 
   13039.160   295309.40    119467.40 
   13042.220   295825.40    119495.40 
   13045.280   295879.40    119409.40 
   13048.360   296007.40    119301.40 
   13051.450   296341.40    119292.40 
   13054.550   296795.40    119320.40 
   13057.670   297354.40    119410.40 
   13060.790   297677.40    119399.40 
   13063.930   297832.40    119324.40 
   13067.080   297861.40    119209.40 
   13070.240   299601.40    119781.40 
   13073.420   300066.40    119842.40 
   13076.600   300392.40    119853.40 
   13079.800   300912.40    119936.40 
   13083.010   301355.40    120025.40 
   13086.240   301123.40    119823.40 
   13089.470   301340.40    119758.40 
   13092.720   302038.40    119932.40 
   13095.980   302366.40    119938.40 
   13099.250   302382.40    119846.40 
   13102.540   302299.40    119753.40 
   13105.840   302788.40    119814.40 
   13109.140   303116.40    119860.40 
   13112.470   303373.40    119867.40 
   13115.800   303680.40    119893.40 
   13119.140   303770.40    119825.40 
   13122.500   304032.40    119841.40 
   13125.870   303907.40    119683.40 
   13129.250   303922.40    119615.40 
   13132.650   304530.40    119739.40 
   13136.050   305001.40    119824.40 
   13139.470   304825.40    119673.40 
   13142.900   304881.40    119593.40 
   13146.350   305258.40    119654.40 
   13149.800   305802.40    119741.40 
   13153.270   306030.40    119750.40 
   13156.750   306219.40    119703.40 
   13160.240   306396.40    119663.40 
   13163.740   306557.40    119625.40 
   13167.260   306777.40    119608.40 
   13170.790   307230.40    119665.40 
   13174.330   307593.40    119677.40 
   13177.880   307765.40    119600.40 
   13181.440   307805.40    119495.40 
   13185.020   307997.40    119452.40 
   13188.610   308685.40    119587.40 
   13192.210   309234.40    119697.40 
   13195.820   309334.40    119570.40 
   13199.450   309725.40    119632.40 
   13203.090   309880.40    119535.40 
   13206.740   310256.40    119566.40 
   13210.400   310243.40    119429.40 
   13214.070   310625.40    119417.40 
   13217.760   310146.40    119073.40 
   13221.460   312627.40    119921.40 
   13225.170   312073.40    119550.40 
   13228.890   312177.40    119422.40 
   13232.630   312489.40    119379.40 
   13236.370   312994.40    119463.40 
   13240.130   313667.40    119573.40 
   13243.910   313658.40    119451.40 
   13247.690   313734.40    119350.40 
   13251.490   313979.40    119317.40 
   13255.290   314983.40    119529.40 
   13259.110   315959.40    119803.40 
   13262.950   316296.40    119764.40 
   13266.790   315728.40    119431.40 
   13270.650   312509.40    118089.40 
   13274.520   311160.40    117431.40 
   13278.400   316174.40    119178.40 
   13282.290   317419.40    119516.40 
   13286.200   316928.40    119241.40 
   13290.110   318822.40    119779.40 
   13294.040   319785.40    119990.40 
   13297.990   319478.40    119790.40 
   13301.940   319671.40    119699.40 
   13305.910   320752.40    120013.40 
   13309.890   321034.40    119982.40 
   13313.880   321479.40    120036.40 
   13317.880   321289.40    119859.40 
   13321.900   321155.40    119676.40 
   13325.920   321295.40    119617.40 
   13329.960   321851.40    119710.40 
   13334.010   322899.40    120002.40 
   13338.080   323234.40    120007.40 
   13342.150   323667.40    120027.40 
   13346.240   324352.40    120152.40 
   13350.340   324268.40    120013.40 
   13354.460   324145.40    119857.40 
   13358.580   324187.40    119733.40 
   13362.720   323912.40    119488.40 
   13366.870   324301.40    119544.40 
   13371.030   324871.40    119649.40 
   13375.200   325611.40    119765.40 
   13379.390   325940.40    119781.40 
   13383.580   326020.40    119663.40 
   13387.790   326643.40    119763.40 
   13392.020   326797.40    119682.40 
   13396.250   327404.40    119765.40 
   13400.500   327727.40    119797.40 
   13404.760   328075.40    119738.40 
