#XDI/1.1  GSE/1.0
# Column.1: energy eV
# Column.2: itrans
# Column.3: i0
# Scan.end_time: 2008-04-10 22:34:39
# Scan.start_time: 2008-04-10 22:16:57
# Element.symbol:  Se
# Element.edge:  K
# Mono.d_spacing:  3.13555
# Mono.name: Si 111
# Sample.temperature: room temperature
# Sample.formula: Na2SeO3
# Sample.name: sodium selenite
# Sample.prep: powder on tape, many layers
# Facility.Name:  APS
# Beamline.Name:  13-BM-D
# Beamline.xray_source:  bending magnet
# Beamline.Storage_Ring_Current: 102.524
# Beamline.I0: N2, 5 nA/V
# Beamline.I1: N2, 20 nA/V
# ScanParameters.E0: 12658.0
# ScanParameters.Legend: Start       Stop       Step       Npts       Time   Kspace?
# ScanParameters.Region1: -150.00    -10.000     5.0000     29.000     2.0000   0
# ScanParameters.Region2: -10.000     30.000    0.25000     161.00     2.0000   0
# ScanParameters.Region3: 2.8061     14.000   0.039978     281.00     2.0000   1
#-------------------------
#  energy  itrans  i0
   12508.000   452494.40    121264.40
   12513.000   450006.40    120500.40
   12518.000   448844.40    120079.40
   12523.000   446956.40    119419.40
   12528.000   449327.40    119930.40
   12533.000   451563.40    120448.40
   12538.000   451591.40    120315.40
   12543.000   450413.40    119888.40
   12548.000   450146.40    119728.40
   12553.000   450382.40    119688.40
   12558.000   450651.40    119666.40
   12563.000   450892.40    119612.40
   12568.000   452183.40    119842.40
   12573.000   452845.40    119908.40
   12578.000   453135.40    119877.40
   12583.000   452797.40    119694.40
   12588.000   452094.40    119383.40
   12593.000   454624.40    119993.40
   12598.000   454256.40    119794.40
   12603.000   453874.40    119606.40
   12608.000   454516.40    119697.40
   12613.000   454689.40    119710.40
   12618.000   455098.40    119767.40
   12623.000   454792.40    119677.40
   12628.000   454784.40    119728.40
   12633.000   454815.40    119840.40
   12638.000   453502.40    119758.40
   12643.000   450688.40    119546.40
   12648.000   445892.40    119469.40
   12648.250   446284.40    119710.40
   12648.500   446297.40    119817.40
   12648.750   446779.40    120046.40
   12649.000   446538.40    120132.40
   12649.250   446346.40    120116.40
   12649.500   445893.40    120156.40
   12649.750   445064.40    120024.40
   12650.000   444115.40    119959.40
   12650.250   443533.40    119956.40
   12650.500   443067.40    119942.40
   12650.750   442283.40    119933.40
   12651.000   441826.40    119948.40
   12651.250   441031.40    119969.40
   12651.500   440306.40    120022.40
   12651.750   439767.40    120047.40
   12652.000   438449.40    119936.40
   12652.250   437116.40    119810.40
   12652.500   435903.40    119810.40
   12652.750   435306.40    119865.40
   12653.000   433712.40    119816.40
   12653.250   432089.40    119790.40
   12653.500   430775.40    119742.40
   12653.750   428636.40    119603.40
   12654.000   427630.40    119704.40
   12654.250   425557.40    119677.40
   12654.500   423925.40    119837.40
   12654.750   422113.40    119753.40
   12655.000   420065.40    119948.40
   12655.250   417722.40    119912.40
   12655.500   414448.40    119917.40
   12655.750   411546.40    119840.40
   12656.000   407162.40    119838.40
   12656.250   402470.40    119847.40
   12656.500   398175.40    119766.40
   12656.750   391393.40    119679.40
   12657.000   386464.40    119630.40
   12657.250   378582.40    119653.40
   12657.500   371963.40    119743.40
   12657.750   362203.40    119714.40
   12658.000   351322.40    119820.40
   12658.250   341189.40    119712.40
   12658.500   326429.40    119597.40
   12658.750   314228.40    119659.40
   12659.000   296283.40    119732.40
   12659.250   274534.40    119784.40
   12659.500   257328.40    119689.40
   12659.750   231544.40    119643.40
   12660.000   211639.40    119525.40
   12660.250   183340.40    119546.40
   12660.500   162835.40    119668.40
   12660.750   136663.40    119684.40
   12661.000   114414.40    119638.40
   12661.250   101497.40    119498.40
   12661.500    90282.40    119452.40
   12661.750    86267.40    119391.40
   12662.000    86758.40    119466.40
   12662.250    90540.40    119462.40
   12662.500    99251.40    119416.40
   12662.750   112158.40    119545.40
   12663.000   122631.40    119545.40
   12663.250   138202.40    119542.40
   12663.500   149017.40    119425.40
   12663.750   163059.40    119368.40
   12664.000   175600.40    119513.40
   12664.250   183270.40    119618.40
   12664.500   191636.40    119569.40
   12664.750   196643.40    119500.40
   12665.000   201940.40    119390.40
   12665.250   205418.40    119403.40
   12665.500   209690.40    119371.40
   12665.750   213524.40    119393.40
   12666.000   216372.40    119503.40
   12666.250   219772.40    119378.40
   12666.500   222190.40    119392.40
   12666.750   225180.40    119342.40
   12667.000   227480.40    119567.40
   12667.250   230643.40    119949.40
   12667.500   232317.40    119952.40
   12667.750   233214.40    119971.40
   12668.000   233733.40    119882.40
   12668.250   234053.40    119990.40
   12668.500   233609.40    119930.40
   12668.750   233085.40    119925.40
   12669.000   232036.40    119869.40
   12669.250   230931.40    119845.40
   12669.500   230328.40    119928.40
   12669.750   229398.40    119941.40
   12670.000   228606.40    119876.40
   12670.250   227664.40    119755.40
   12670.500   227233.40    119804.40
   12670.750   226769.40    119843.40
   12671.000   226559.40    119896.40
   12671.250   226213.40    119778.40
   12671.500   226186.40    119787.40
   12671.750   226368.40    119816.40
   12672.000   226748.40    119808.40
   12672.250   227203.40    119785.40
   12672.500   228137.40    119791.40
   12672.750   229156.40    119793.40
   12673.000   230180.40    119796.40
   12673.250   231351.40    119702.40
   12673.500   232275.40    119691.40
   12673.750   233514.40    119635.40
   12674.000   234426.40    119624.40
   12674.250   235876.40    119678.40
   12674.500   236975.40    119613.40
   12674.750   238150.40    119682.40
   12675.000   239220.40    119571.40
   12675.250   240441.40    119646.40
   12675.500   241817.40    119581.40
   12675.750   243094.40    119509.40
   12676.000   245005.40    119589.40
   12676.250   247014.40    119648.40
   12676.500   248267.40    119565.40
   12676.750   250255.40    119570.40
   12677.000   251587.40    119496.40
   12677.250   253627.40    119549.40
   12677.500   255034.40    119612.40
   12677.750   256816.40    119676.40
   12678.000   258201.40    119640.40
   12678.250   259135.40    119606.40
   12678.500   260035.40    119436.40
   12678.750   260827.40    119416.40
   12679.000   261806.40    119427.40
   12679.250   262545.40    119496.40
   12679.500   263545.40    119562.40
   12679.750   263991.40    119505.40
   12680.000   264503.40    119411.40
   12680.250   265290.40    119406.40
   12680.500   267293.40    120112.40
   12680.750   267958.40    120128.40
   12681.000   268272.40    120125.40
   12681.250   268480.40    120075.40
   12681.500   268308.40    119881.40
   12681.750   268432.40    119891.40
   12682.000   268559.40    120027.40
   12682.250   268203.40    119952.40
   12682.500   267816.40    119970.40
   12682.750   267241.40    119881.40
   12683.000   266844.40    119970.40
   12683.250   266246.40    119977.40
   12683.500   265619.40    120047.40
   12683.750   264786.40    120010.40
   12684.000   264002.40    119935.40
   12684.250   262956.40    119836.40
   12684.500   262441.40    119819.40
   12684.750   261882.40    119894.40
   12685.000   261511.40    119910.40
   12685.250   261153.40    119894.40
   12685.500   261074.40    119974.40
   12685.750   260825.40    119851.40
   12686.000   260977.40    119869.40
   12686.250   261265.40    119898.40
   12686.500   261687.40    119848.40
   12686.750   262202.40    119884.40
   12687.000   262742.40    119778.40
   12687.250   263443.40    119826.40
   12687.500   264281.40    119708.40
   12687.750   265373.40    119717.40
   12688.000   266254.40    119724.40
   12688.860   270025.40    119631.40
   12689.730   274505.40    119753.40
   12690.620   277628.40    119705.40
   12691.520   280170.40    119781.40
   12692.430   281230.40    119769.40
   12693.350   281119.40    119683.40
   12694.280   280472.40    119653.40
   12695.230   279864.40    119567.40
   12696.190   280134.40    119458.40
   12697.160   281369.40    119395.40
   12698.140   284616.40    119748.40
   12699.130   287304.40    119758.40
   12700.140   288914.40    119681.40
   12701.160   289346.40    119576.40
   12702.190   289105.40    119513.40
   12703.240   288504.40    119574.40
   12704.290   287624.40    119592.40
   12705.360   286396.40    119452.40
   12706.440   285789.40    119427.40
   12707.530   285573.40    119476.40
   12708.640   285314.40    119554.40
   12709.750   284502.40    119477.40
   12710.880   283812.40    119771.40
   12712.020   282473.40    120036.40
   12713.180   280344.40    120058.40
   12714.340   278225.40    120088.40
   12715.520   276413.40    120055.40
   12716.710   274708.40    120089.40
   12717.910   273215.40    120072.40
   12719.130   272036.40    120040.40
   12720.350   270818.40    119906.40
   12721.590   269772.40    119882.40
   12722.840   268403.40    119978.40
   12724.100   266638.40    120023.40
   12725.380   264819.40    120043.40
   12726.670   263043.40    120013.40
   12727.960   261714.40    119947.40
   12729.280   261131.40    119899.40
   12730.600   260827.40    119835.40
   12731.940   261056.40    119923.40
   12733.280   261321.40    119970.40
   12734.640   261648.40    119888.40
   12736.020   262419.40    119841.40
   12737.400   263510.40    119753.40
   12738.800   264198.40    119616.40
   12740.210   263735.40    119263.40
   12741.630   265668.40    120192.40
   12743.060   265185.40    120124.40
   12744.510   264575.40    119990.40
   12745.960   263875.40    119820.40
   12747.430   263548.40    119715.40
   12748.920   263858.40    119768.40
   12750.410   264486.40    119822.40
   12751.920   265201.40    119830.40
   12753.440   265855.40    119800.40
   12754.970   266603.40    119845.40
   12756.510   267402.40    119847.40
   12758.060   268178.40    119786.40
   12759.630   268725.40    119647.40
   12761.210   269700.40    119704.40
   12762.800   270241.40    119623.40
   12764.410   270878.40    119658.40
   12766.020   271249.40    119636.40
   12767.650   271463.40    119508.40
   12769.290   272553.40    119693.40
   12770.940   272885.40    119459.40
   12772.610   272517.40    118932.40
   12774.290   275651.40    119883.40
   12775.970   276016.40    119713.40
   12777.680   276584.40    119651.40
   12779.390   277122.40    119595.40
   12781.110   277524.40    119507.40
   12782.850   278145.40    119516.40
   12784.600   278804.40    119522.40
   12786.360   279285.40    119494.40
   12788.140   280192.40    119698.40
   12789.920   281330.40    120098.40
   12791.720   281284.40    120026.40
   12793.540   281319.40    120049.40
   12795.360   281062.40    119973.40
   12797.190   281138.40    120095.40
   12799.040   280872.40    120048.40
   12800.900   280431.40    119920.40
   12802.770   278866.40    119293.40
   12804.660   281715.40    120553.40
   12806.550   281015.40    120331.40
   12808.460   280588.40    120195.40
   12810.380   280102.40    120043.40
   12812.310   280042.40    120093.40
   12814.260   279778.40    120041.40
   12816.210   279310.40    119936.40
   12818.180   279211.40    119994.40
   12820.170   279059.40    120043.40
   12822.160   278575.40    120016.40
   12824.170   277948.40    119968.40
   12826.180   277496.40    119933.40
   12828.210   276937.40    119829.40
   12830.250   276817.40    119808.40
   12832.310   276847.40    119857.40
   12834.380   277100.40    119913.40
   12836.460   276980.40    119806.40
   12838.550   276694.40    119635.40
   12840.650   276370.40    119428.40
   12842.760   277842.40    120041.40
   12844.890   277702.40    119953.40
   12847.030   277327.40    119840.40
   12849.180   277345.40    119863.40
   12851.350   277168.40    119731.40
   12853.520   277109.40    119640.40
   12855.710   276076.40    119171.40
   12857.910   279253.40    120338.40
   12860.130   278929.40    120024.40
   12862.350   279019.40    119952.40
   12864.590   279060.40    119817.40
   12866.840   279014.40    119640.40
   12869.100   277924.40    119057.40
   12871.370   280336.40    119936.40
   12873.660   280304.40    119783.40
   12875.960   280228.40    119634.40
   12878.270   280891.40    119711.40
   12880.590   281546.40    119829.40
   12882.920   281926.40    119787.40
   12885.270   282478.40    119787.40
   12887.630   282896.40    119749.40
   12890.000   283077.40    119574.40
   12892.380   283698.40    119643.40
   12894.780   284217.40    119681.40
   12897.190   284592.40    119691.40
   12899.610   285027.40    119706.40
   12902.040   284883.40    119559.40
   12904.480   285078.40    119554.40
   12906.940   285236.40    119551.40
   12909.410   285675.40    119603.40
   12911.890   286001.40    119594.40
   12914.380   286443.40    119697.40
   12916.880   286495.40    119581.40
   12919.400   286458.40    119483.40
   12921.930   286714.40    119463.40
   12924.470   287093.40    119521.40
   12927.030   287303.40    119528.40
   12929.590   287563.40    119533.40
   12932.170   287594.40    119506.40
   12934.760   287690.40    119508.40
   12937.360   287886.40    119539.40
   12939.980   287691.40    119448.40
   12942.610   287351.40    119249.40
   12945.240   288010.40    119507.40
   12947.900   288145.40    119509.40
   12950.560   287929.40    119390.40
   12953.230   287914.40    119340.40
   12955.920   288020.40    119334.40
   12958.620   288131.40    119318.40
   12961.330   288093.40    119265.40
   12964.060   288008.40    119216.40
   12966.790   287927.40    119156.40
   12969.540   288756.40    119456.40
   12972.300   288625.40    119363.40
   12975.080   288540.40    119285.40
   12977.860   288943.40    119344.40
   12980.660   289003.40    119306.40
   12983.470   289164.40    119278.40
   12986.290   289169.40    119152.40
   12989.130   289546.40    119200.40
   12991.970   289374.40    119058.40
   12994.830   290217.40    119291.40
   12997.700   290281.40    119190.40
   13000.580   290636.40    119282.40
   13003.480   290777.40    119208.40
   13006.380   291124.40    119221.40
   13009.300   291307.40    119208.40
   13012.230   291710.40    119226.40
   13015.180   291981.40    119221.40
   13018.130   291373.40    118873.40
   13021.100   292973.40    119344.40
   13024.080   293148.40    119311.40
   13027.070   293511.40    119306.40
   13030.080   293375.40    119113.40
   13033.090   293437.40    118997.40
   13036.120   293781.40    119038.40
   13039.160   294337.40    119116.40
   13042.220   294405.40    118990.40
   13045.280   294889.40    119023.40
   13048.360   296484.40    119534.40
   13051.450   297090.40    119630.40
   13054.550   297486.40    119631.40
   13057.670   297438.40    119463.40
   13060.790   297970.40    119523.40
   13063.930   298401.40    119595.40
   13067.080   298676.40    119581.40
   13070.240   298950.40    119550.40
   13073.420   299243.40    119552.40
   13076.600   299585.40    119582.40
   13079.800   299695.40    119480.40
   13083.010   299979.40    119467.40
   13086.240   300350.40    119519.40
   13089.470   300635.40    119488.40
   13092.720   300504.40    119356.40
   13095.980   300954.40    119394.40
   13099.250   301512.40    119521.40
   13102.540   301707.40    119519.40
   13105.840   301640.40    119384.40
   13109.140   302080.40    119451.40
   13112.470   302513.40    119549.40
   13115.800   302631.40    119484.40
   13119.140   302572.40    119377.40
   13122.500   302811.40    119346.40
   13125.870   303052.40    119364.40
   13129.250   303558.40    119469.40
   13132.650   303605.40    119393.40
   13136.050   303902.40    119418.40
   13139.470   304323.40    119493.40
   13142.900   304539.40    119485.40
   13146.350   304296.40    119271.40
   13149.800   304271.40    119175.40
   13153.270   304603.40    119197.40
   13156.750   305145.40    119287.40
   13160.240   305532.40    119360.40
   13163.740   305673.40    119272.40
   13167.260   306032.40    119334.40
   13170.790   306299.40    119269.40
   13174.330   306443.40    119236.40
   13177.880   306819.40    119272.40
   13181.440   307013.40    119207.40
   13185.020   307508.40    119287.40
   13188.610   308013.40    119346.40
   13192.210   307889.40    119187.40
   13195.820   308098.40    119132.40
   13199.450   308356.40    119098.40
   13203.090   308840.40    119168.40
   13206.740   309192.40    119177.40
   13210.400   309511.40    119160.40
   13214.070   309998.40    119197.40
   13217.760   309120.40    118700.40
   13221.460   311454.40    119463.40
   13225.170   311429.40    119325.40
   13228.890   311908.40    119344.40
   13232.630   312958.40    119617.40
   13236.370   313494.40    119705.40
   13240.130   313446.40    119515.40
   13243.910   314348.40    119711.40
   13247.690   314352.40    119584.40
   13251.490   314530.40    119492.40
   13255.290   314832.40    119488.40
   13259.110   315057.40    119442.40
   13262.950   315169.40    119362.40
   13266.790   314632.40    119004.40
   13270.650   311982.40    117883.40
   13274.520   310136.40    117055.40
   13278.400   315352.40    118888.40
   13282.290   316227.40    119065.40
   13286.200   316333.40    119019.40
   13290.110   317986.40    119477.40
   13294.040   318966.40    119742.40
   13297.990   318513.40    119425.40
   13301.940   318597.40    119347.40
   13305.910   319952.40    119729.40
   13309.890   320300.40    119741.40
   13313.880   320497.40    119702.40
   13317.880   320612.40    119633.40
   13321.900   320283.40    119393.40
   13325.920   320453.40    119353.40
   13329.960   320780.40    119364.40
   13334.010   321753.40    119624.40
   13338.080   322156.40    119640.40
   13342.150   322531.40    119658.40
   13346.240   322608.40    119551.40
   13350.340   323082.40    119631.40
   13354.460   323330.40    119570.40
   13358.580   323580.40    119539.40
   13362.720   323422.40    119359.40
   13366.870   323486.40    119248.40
   13371.030   323920.40    119324.40
   13375.200   324278.40    119348.40
   13379.390   324817.40    119389.40
   13383.580   325172.40    119399.40
   13387.790   325573.40    119400.40
   13392.020   325588.40    119255.40
   13396.250   325702.40    119187.40
   13400.500   326484.40    119328.40
   13404.760   327097.40    119403.40
