#XDI/1.1  GSE/1.0
# Column.1: energy eV
# Column.2: itrans
# Column.3: i0
# Scan.end_time: 2008-04-10 21:40:33
# Scan.start_time: 2008-04-10 21:22:51
# Element.symbol:  Se
# Element.edge:  K
# Facility.Name:  APS
# Beamline.Name:  13-BM-D
# Beamline.xray_source:  bending magnet
# Mono.dspacing:  3.13555
# Mono.name: Si 111
# Beamline.Storage_Ring_Current: 102.043 || S:SRcurrentAI.VAL
# Beamline.FOE_Mono_angle_readback: 9.0947 || 13BMA:m17.RBV
# Beamline.Mono_Energy_drive_val: 12508.0000 || 13BMA:E:Energy.VAL
# Beamline.Mono_Energy_readback: 12503.0242 || 13BMA:E:E_RBV
# Beamline.Mono_Beam_Offset: 20.0000 || 13BMA:E:height.VAL
# Beamline.I0_sensitivity_value: 5 || 13BMD:A3sens_num.VAL
# Beamline.I0_sensitivity_value: nA/V || 13BMD:A3sens_unit.VAL
# Beamline.I1_sensitivity_value: 20 || 13BMD:A2sens_num.VAL
# Beamline.I1_sensitivity_value: nA/V || 13BMD:A2sens_unit.VAL
# Beamline.FOE_Mono_Yout: 10.4439 || 13BMA:m10.VAL
# Beamline.FOE_Mono_Yin: 10.6474 || 13BMA:m11.VAL
# Beamline.FOE_Mono_Yup: 9.7047 || 13BMA:m12.VAL
# Beamline.FOE_Mono_Cage_Y: 0.000 || 13BMA:m13.VAL
# Beamline.FOE_Mono_Z: 64.134 || 13BMA:m14.VAL
# Beamline.FOE_Mono_angle: 9.0947 || 13BMA:m17.VAL
# Beamline.BMD_Horiz_Width: 5.000 || 13BMD:BMDHt2.C
# Beamline.BMD_Horiz_Center: -2.000 || 13BMD:BMDHt2.D
# Beamline.BMD_Vertical_Width: 0.500 || 13BMD:BMDVt2.C
# Beamline.BMD_Vertical_Center: -19.950 || 13BMD:BMDVt2.D
# Beamline.Sample_X: 326.174 || 13BMD:m70.VAL
# Beamline.Sample_Z__focus: 72.748 || 13BMD:m33.VAL
# Beamline.Sample_Y__height: 62.116 || 13BMD:m34.VAL
# ScanParameters.Start: Scan.Member: Value
# ScanParameters.E0: 12658.0
# ScanParameters.Legend: Start       Stop       Step       Npts       Time   Kspace?
# ScanParameters.Region1: -150.00    -10.000     5.0000     29.000     2.0000   0
# ScanParameters.Region2: -10.000     30.000    0.25000     161.00     2.0000   0
# ScanParameters.Region3: 2.8061     14.000   0.039978     281.00     2.0000   1
# ScanParameters.End: here
#-------------------------
#  energy  itrans  i0
   12508.000   505173.40    122114.40 
   12513.000   499714.40    120704.40 
   12518.000   497647.40    120142.40 
   12523.000   494919.40    119322.40 
   12528.000   495747.40    119423.40 
   12533.000   496529.40    119508.40 
   12538.000   496443.40    119424.40 
   12543.000   495800.40    119134.40 
   12548.000   495973.40    119081.40 
   12553.000   497142.40    119288.40 
   12558.000   496946.40    119125.40 
   12563.000   496688.40    119011.40 
   12568.000   497561.40    119128.40 
   12573.000   498063.40    119193.40 
   12578.000   498593.40    119193.40 
   12583.000   497860.40    118943.40 
   12588.000   497315.40    118778.40 
   12593.000   500487.40    119470.40 
   12598.000   499181.40    119077.40 
   12603.000   498272.40    118852.40 
   12608.000   499029.40    118959.40 
   12613.000   499901.40    119166.40 
   12618.000   499484.40    119075.40 
   12623.000   498784.40    118966.40 
   12628.000   498516.40    119060.40 
   12633.000   498419.40    119313.40 
   12638.000   495455.40    119117.40 
   12643.000   489844.40    118996.40 
   12648.000   477580.40    119063.40 
   12648.250   476689.40    119198.40 
   12648.500   475861.40    119387.40 
   12648.750   475224.40    119467.40 
   12649.000   473555.40    119476.40 
   12649.250   472755.40    119591.40 
   12649.500   470416.40    119518.40 
   12649.750   468477.40    119394.40 
   12650.000   466032.40    119368.40 
   12650.250   463345.40    119266.40 
   12650.500   461578.40    119403.40 
   12650.750   458433.40    119396.40 
   12651.000   455795.40    119345.40 
   12651.250   452202.40    119427.40 
   12651.500   447621.40    119407.40 
   12651.750   444152.40    119410.40 
   12652.000   438330.40    119365.40 
   12652.250   433527.40    119311.40 
   12652.500   426410.40    119286.40 
   12652.750   420269.40    119271.40 
   12653.000   410926.40    119237.40 
   12653.250   399805.40    119250.40 
   12653.500   390734.40    119211.40 
   12653.750   376060.40    119090.40 
   12654.000   363287.40    119079.40 
   12654.250   344514.40    119047.40 
   12654.500   325066.40    119845.40 
   12654.750   306755.40    119945.40 
   12655.000   278599.40    120079.40 
   12655.250   254861.40    120101.40 
   12655.500   221632.40    119983.40 
   12655.750   195874.40    119880.40 
   12656.000   162141.40    119964.40 
   12656.250   132826.40    119909.40 
   12656.500   114476.40    119818.40 
   12656.750    97583.40    119809.40 
   12657.000    91145.40    119694.40 
   12657.250    88690.40    119608.40 
   12657.500    91548.40    119636.40 
   12657.750    99586.40    119678.40 
   12658.000   111146.40    119735.40 
   12658.250   121708.40    119628.40 
   12658.500   137193.40    119725.40 
   12658.750   149477.40    119734.40 
   12659.000   165807.40    119672.40 
   12659.250   183125.40    119619.40 
   12659.500   195345.40    119552.40 
   12659.750   211751.40    119662.40 
   12660.000   222789.40    119733.40 
   12660.250   236574.40    119656.40 
   12660.500   245589.40    119588.40 
   12660.750   255138.40    119576.40 
   12661.000   261293.40    119455.40 
   12661.250   264099.40    119601.40 
   12661.500   264669.40    119670.40 
   12661.750   263126.40    119659.40 
   12662.000   259600.40    119720.40 
   12662.250   255896.40    119573.40 
   12662.500   250925.40    119524.40 
   12662.750   245695.40    119434.40 
   12663.000   242289.40    119468.40 
   12663.250   238126.40    119581.40 
   12663.500   235277.40    119578.40 
   12663.750   231561.40    119577.40 
   12664.000   228255.40    119526.40 
   12664.250   226031.40    119444.40 
   12664.500   223854.40    119443.40 
   12664.750   222417.40    119396.40 
   12665.000   221329.40    119432.40 
   12665.250   220865.40    119409.40 
   12665.500   220567.40    119352.40 
   12665.750   220807.40    119413.40 
   12666.000   221070.40    119401.40 
   12666.250   221302.40    119328.40 
   12666.500   221698.40    119418.40 
   12666.750   221965.40    119410.40 
   12667.000   222028.40    119354.40 
   12667.250   222192.40    119410.40 
   12667.500   222234.40    119428.40 
   12667.750   223144.40    119953.40 
   12668.000   223183.40    120056.40 
   12668.250   222843.40    119905.40 
   12668.500   222614.40    119924.40 
   12668.750   222388.40    119906.40 
   12669.000   222190.40    119932.40 
   12669.250   222126.40    120025.40 
   12669.500   221892.40    119929.40 
   12669.750   221625.40    119906.40 
   12670.000   221488.40    119872.40 
   12670.250   221406.40    119823.40 
   12670.500   221470.40    119851.40 
   12670.750   221379.40    119754.40 
   12671.000   221660.40    119784.40 
   12671.250   221940.40    119819.40 
   12671.500   222384.40    119872.40 
   12671.750   222608.40    119805.40 
   12672.000   223217.40    119841.40 
   12672.250   223510.40    119764.40 
   12672.500   224003.40    119703.40 
   12672.750   224900.40    119828.40 
   12673.000   225364.40    119788.40 
   12673.250   225989.40    119755.40 
   12673.500   226430.40    119763.40 
   12673.750   226837.40    119631.40 
   12674.000   227372.40    119710.40 
   12674.250   227831.40    119639.40 
   12674.500   228451.40    119729.40 
   12674.750   228773.40    119695.40 
   12675.000   229113.40    119610.40 
   12675.250   229509.40    119675.40 
   12675.500   229711.40    119601.40 
   12675.750   229995.40    119637.40 
   12676.000   230393.40    119670.40 
   12676.250   230364.40    119531.40 
   12676.500   230611.40    119576.40 
   12676.750   230658.40    119493.40 
   12677.000   230896.40    119573.40 
   12677.250   231156.40    119601.40 
   12677.500   231328.40    119643.40 
   12677.750   231316.40    119615.40 
   12678.000   231532.40    119687.40 
   12678.250   231466.40    119615.40 
   12678.500   231203.40    119472.40 
   12678.750   231168.40    119451.40 
   12679.000   231327.40    119563.40 
   12679.250   231369.40    119545.40 
   12679.500   231113.40    119444.40 
   12679.750   230949.40    119363.40 
   12680.000   231155.40    119490.40 
   12680.250   231007.40    119434.40 
   12680.500   231122.40    119538.40 
   12680.750   230902.40    119412.40 
   12681.000   231229.40    119606.40 
   12681.250   232033.40    120032.40 
   12681.500   232050.40    120073.40 
   12681.750   232003.40    120010.40 
   12682.000   231971.40    120013.40 
   12682.250   231963.40    120011.40 
   12682.500   232077.40    120069.40 
   12682.750   232098.40    120087.40 
   12683.000   231945.40    119985.40 
   12683.250   231876.40    119954.40 
   12683.500   231876.40    119933.40 
   12683.750   231890.40    119938.40 
   12684.000   232018.40    120007.40 
   12684.250   231730.40    119849.40 
   12684.500   231890.40    119961.40 
   12684.750   231906.40    119958.40 
   12685.000   231904.40    119964.40 
   12685.250   231714.40    119868.40 
   12685.500   231664.40    119841.40 
   12685.750   231609.40    119833.40 
   12686.000   231518.40    119790.40 
   12686.250   231561.40    119803.40 
   12686.500   231595.40    119819.40 
   12686.750   231576.40    119857.40 
   12687.000   231387.40    119712.40 
   12687.250   231542.40    119817.40 
   12687.500   231572.40    119814.40 
   12687.750   231445.40    119785.40 
   12688.000   231473.40    119785.40 
   12688.860   231344.40    119750.40 
   12689.730   231175.40    119687.40 
   12690.620   231354.40    119824.40 
   12691.520   230944.40    119649.40 
   12692.430   230652.40    119585.40 
   12693.350   230320.40    119538.40 
   12694.280   230024.40    119578.40 
   12695.230   229609.40    119528.40 
   12696.190   229204.40    119494.40 
   12697.160   228795.40    119409.40 
   12698.140   229478.40    119791.40 
   12699.130   229334.40    119709.40 
   12700.140   229327.40    119612.40 
   12701.160   229517.40    119509.40 
   12702.190   230039.40    119512.40 
   12703.240   230899.40    119565.40 
   12704.290   231709.40    119480.40 
   12705.360   232742.40    119539.40 
   12706.440   233555.40    119517.40 
   12707.530   234203.40    119502.40 
   12708.640   234660.40    119483.40 
   12709.750   235031.40    119495.40 
   12710.880   235057.40    119462.40 
   12712.020   235078.40    119455.40 
   12713.180   234989.40    119412.40 
   12714.340   236421.40    120159.40 
   12715.520   236281.40    120088.40 
   12716.710   236030.40    119959.40 
   12717.910   236320.40    120076.40 
   12719.130   236309.40    120020.40 
   12720.350   236254.40    119930.40 
   12721.590   236513.40    120004.40 
   12722.840   236678.40    120047.40 
   12724.100   236629.40    120013.40 
   12725.380   236654.40    119967.40 
   12726.670   236433.40    119846.40 
   12727.960   236465.40    119893.40 
   12729.280   236437.40    119894.40 
   12730.600   236395.40    119930.40 
   12731.940   236267.40    119976.40 
   12733.280   235819.40    119872.40 
   12734.640   235591.40    119894.40 
   12736.020   235168.40    119796.40 
   12737.400   235097.40    119778.40 
   12738.800   235142.40    119800.40 
   12740.210   234363.40    119395.40 
   12741.630   236212.40    120255.40 
   12743.060   236065.40    120031.40 
   12744.510   236007.40    119865.40 
   12745.960   236511.40    119993.40 
   12747.430   236547.40    119806.40 
   12748.920   236643.40    119651.40 
   12750.410   237285.40    119736.40 
   12751.920   237925.40    119826.40 
   12753.440   238446.40    119801.40 
   12754.970   238775.40    119712.40 
   12756.510   239171.40    119630.40 
   12758.060   239669.40    119689.40 
   12759.630   239829.40    119600.40 
   12761.210   240067.40    119570.40 
   12762.800   240446.40    119713.40 
   12764.410   240353.40    119594.40 
   12766.020   240471.40    119662.40 
   12767.650   240357.40    119616.40 
   12769.290   240342.40    119598.40 
   12770.940   240076.40    119491.40 
   12772.610   238854.40    118939.40 
   12774.290   240699.40    119899.40 
   12775.970   240531.40    119811.40 
   12777.680   240268.40    119685.40 
   12779.390   240158.40    119700.40 
   12781.110   239825.40    119629.40 
   12782.850   239252.40    119416.40 
   12784.600   239101.40    119519.40 
   12786.360   238813.40    119523.40 
   12788.140   238536.40    119541.40 
   12789.920   238152.40    119491.40 
   12791.720   237787.40    119433.40 
   12793.540   238452.40    119891.40 
   12795.360   238407.40    119991.40 
   12797.190   238357.40    119989.40 
   12799.040   238271.40    119959.40 
   12800.900   238272.40    119923.40 
   12802.770   237166.40    119296.40 
   12804.660   239958.40    120570.40 
   12806.550   239705.40    120277.40 
   12808.460   239967.40    120157.40 
   12810.380   240235.40    120011.40 
   12812.310   240738.40    119909.40 
   12814.260   241551.40    119967.40 
   12816.210   242361.40    120012.40 
   12818.180   242991.40    119930.40 
   12820.170   243848.40    119969.40 
   12822.160   244453.40    119894.40 
   12824.170   245413.40    119982.40 
   12826.180   246068.40    119972.40 
   12828.210   246484.40    119884.40 
   12830.250   247022.40    119938.40 
   12832.310   247343.40    119905.40 
   12834.380   247467.40    119843.40 
   12836.460   247550.40    119778.40 
   12838.550   247215.40    119600.40 
   12840.650   247200.40    119594.40 
   12842.760   248377.40    120126.40 
   12844.890   247798.40    119871.40 
   12847.030   247626.40    119921.40 
   12849.180   247250.40    119814.40 
   12851.350   247034.40    119827.40 
   12853.520   246547.40    119705.40 
   12855.710   244731.40    119022.40 
   12857.910   247050.40    120301.40 
   12860.130   246206.40    120034.40 
   12862.350   245240.40    119738.40 
   12864.590   245043.40    119767.40 
   12866.840   244431.40    119638.40 
   12869.100   243004.40    119031.40 
   12871.370   244993.40    120059.40 
   12873.660   244696.40    119887.40 
   12875.960   244417.40    119757.40 
   12878.270   244617.40    119743.40 
   12880.590   244761.40    119738.40 
   12882.920   245132.40    119772.40 
   12885.270   245242.40    119655.40 
   12887.630   245437.40    119561.40 
   12890.000   245937.40    119569.40 
   12892.380   246471.40    119568.40 
   12894.780   247223.40    119700.40 
   12897.190   247596.40    119581.40 
   12899.610   248000.40    119543.40 
   12902.040   248696.40    119618.40 
   12904.480   249057.40    119543.40 
   12906.940   250018.40    119758.40 
   12909.410   251159.40    120087.40 
   12911.890   251235.40    119895.40 
   12914.380   251658.40    119881.40 
   12916.880   252224.40    119961.40 
   12919.400   252628.40    119959.40 
   12921.930   252970.40    119938.40 
   12924.470   253253.40    119923.40 
   12927.030   253502.40    119908.40 
   12929.590   253795.40    119916.40 
   12932.170   253823.40    119816.40 
   12934.760   254093.40    119907.40 
   12937.360   254318.40    119945.40 
   12939.980   254177.40    119848.40 
   12942.610   254081.40    119794.40 
   12945.240   254382.40    119952.40 
   12947.900   254128.40    119853.40 
   12950.560   253957.40    119834.40 
   12953.230   253824.40    119772.40 
   12955.920   253934.40    119899.40 
   12958.620   253735.40    119901.40 
   12961.330   253727.40    119912.40 
   12964.060   253518.40    119889.40 
   12966.790   253156.40    119738.40 
   12969.540   253203.40    119755.40 
   12972.300   253005.40    119633.40 
   12975.080   253171.40    119655.40 
   12977.860   253613.40    119794.40 
   12980.660   253865.40    119824.40 
   12983.470   253919.40    119713.40 
   12986.290   254122.40    119672.40 
   12989.130   254466.40    119638.40 
   12991.970   254439.40    119417.40 
   12994.830   255609.40    119757.40 
   12997.700   256025.40    119689.40 
   13000.580   256367.40    119576.40 
   13003.480   256915.40    119584.40 
   13006.380   257423.40    119543.40 
   13009.300   258169.40    119644.40 
   13012.230   258640.40    119653.40 
   13015.180   259091.40    119624.40 
   13018.130   258791.40    119215.40 
   13021.100   260124.40    119666.40 
   13024.080   260795.40    119795.40 
   13027.070   261185.40    119797.40 
   13030.080   261074.40    119602.40 
   13033.090   261197.40    119533.40 
   13036.120   261385.40    119541.40 
   13039.160   261521.40    119508.40 
   13042.220   261550.40    119447.40 
   13045.280   261618.40    119442.40 
   13048.360   262083.40    119606.40 
   13051.450   262202.40    119640.40 
   13054.550   261988.40    119510.40 
   13057.670   263145.40    119994.40 
   13060.790   263463.40    120098.40 
   13063.930   263616.40    120154.40 
   13067.080   263640.40    120111.40 
   13070.240   263652.40    120072.40 
   13073.420   263543.40    119983.40 
   13076.600   263827.40    120005.40 
   13079.800   263746.40    119924.40 
   13083.010   264015.40    119960.40 
   13086.240   264286.40    119999.40 
   13089.470   264731.40    120099.40 
   13092.720   264659.40    119957.40 
   13095.980   264665.40    119822.40 
   13099.250   265233.40    119927.40 
   13102.540   265505.40    119893.40 
   13105.840   265889.40    119911.40 
   13109.140   266360.40    119931.40 
   13112.470   266970.40    120012.40 
   13115.800   267199.40    119963.40 
   13119.140   267200.40    119779.40 
   13122.500   267593.40    119737.40 
   13125.870   268282.40    119844.40 
   13129.250   268699.40    119838.40 
   13132.650   268922.40    119742.40 
   13136.050   269605.40    119817.40 
   13139.470   270137.40    119898.40 
   13142.900   270690.40    119941.40 
   13146.350   270736.40    119798.40 
   13149.800   270867.40    119697.40 
   13153.270   271196.40    119715.40 
   13156.750   271656.40    119776.40 
   13160.240   271820.40    119731.40 
   13163.740   272139.40    119723.40 
   13167.260   272299.40    119704.40 
   13170.790   272410.40    119683.40 
   13174.330   272607.40    119664.40 
   13177.880   272766.40    119655.40 
   13181.440   272964.40    119659.40 
   13185.020   273071.40    119636.40 
   13188.610   273431.40    119686.40 
   13192.210   273499.40    119661.40 
   13195.820   273536.40    119607.40 
   13199.450   273850.40    119643.40 
   13203.090   273819.40    119564.40 
   13206.740   273933.40    119500.40 
   13210.400   274294.40    119591.40 
   13214.070   274671.40    119605.40 
   13217.760   273569.40    119039.40 
   13221.460   275778.40    119870.40 
   13225.170   275531.40    119578.40 
   13228.890   275315.40    119374.40 
   13232.630   275842.40    119434.40 
   13236.370   276223.40    119413.40 
   13240.130   277942.40    120003.40 
   13243.910   278535.40    120098.40 
   13247.690   278577.40    119933.40 
   13251.490   278887.40    119915.40 
   13255.290   279226.40    119904.40 
   13259.110   279643.40    119920.40 
   13262.950   279777.40    119777.40 
   13266.790   278975.40    119313.40 
   13270.650   276551.40    118139.40 
   13274.520   275177.40    117384.40 
   13278.400   279815.40    119226.40 
   13282.290   280740.40    119477.40 
   13286.200   280592.40    119275.40 
   13290.110   282289.40    119853.40 
   13294.040   283139.40    120036.40 
   13297.990   282894.40    119801.40 
   13301.940   283270.40    119848.40 
   13305.910   284310.40    120163.40 
   13309.890   284572.40    120153.40 
   13313.880   284748.40    120095.40 
   13317.880   284745.40    119975.40 
   13321.900   284802.40    119871.40 
   13325.920   284661.40    119710.40 
   13329.960   285150.40    119841.40 
   13334.010   285987.40    120043.40 
   13338.080   286229.40    120059.40 
   13342.150   286544.40    120057.40 
   13346.240   287068.40    120161.40 
   13350.340   287213.40    120099.40 
   13354.460   287286.40    119961.40 
   13358.580   287113.40    119766.40 
   13362.720   287038.40    119612.40 
   13366.870   287643.40    119726.40 
   13371.030   288071.40    119770.40 
   13375.200   288777.40    119896.40 
   13379.390   288938.40    119817.40 
   13383.580   289102.40    119758.40 
   13387.790   289415.40    119704.40 
   13392.020   289781.40    119740.40 
   13396.250   290234.40    119739.40 
   13400.500   291002.40    119911.40 
   13404.760   291447.40    119950.40 
