#XDI/1.1  GSE/1.0
# Column.1: energy eV
# Column.2: itrans
# Column.3: i0
# Scan.end_time: 2008-04-10 21:22:50
# Scan.start_time: 2008-04-10 21:05:08
# Element.symbol:  Se
# Element.edge:  K
# Facility.Name:  APS
# Beamline.Name:  13-BM-D
# Beamline.xray_source:  bending magnet
# Mono.d_spacing:  3.13555
# Mono.name: Si 111
# Beamline.Storage_Ring_Current: 102.331 || S:SRcurrentAI.VAL
# Beamline.FOE_Mono_angle_readback: 9.0947 || 13BMA:m17.RBV
# Beamline.Mono_Energy_drive_val: 12508.0000 || 13BMA:E:Energy.VAL
# Beamline.Mono_Energy_readback: 12503.0242 || 13BMA:E:E_RBV
# Beamline.Mono_Beam_Offset: 20.0000 || 13BMA:E:height.VAL
# Beamline.I0_sensitivity_value: 5 || 13BMD:A3sens_num.VAL
# Beamline.I0_sensitivity_value: nA/V || 13BMD:A3sens_unit.VAL
# Beamline.I1_sensitivity_value: 20 || 13BMD:A2sens_num.VAL
# Beamline.I1_sensitivity_value: nA/V || 13BMD:A2sens_unit.VAL
# Beamline.FOE_Mono_Yout: 10.4439 || 13BMA:m10.VAL
# Beamline.FOE_Mono_Yin: 10.6474 || 13BMA:m11.VAL
# Beamline.FOE_Mono_Yup: 9.7047 || 13BMA:m12.VAL
# Beamline.FOE_Mono_Cage_Y: 0.000 || 13BMA:m13.VAL
# Beamline.FOE_Mono_Z: 64.134 || 13BMA:m14.VAL
# Beamline.FOE_Mono_angle: 9.0947 || 13BMA:m17.VAL
# Beamline.BMD_Horiz_Width: 5.000 || 13BMD:BMDHt2.C
# Beamline.BMD_Horiz_Center: -2.000 || 13BMD:BMDHt2.D
# Beamline.BMD_Vertical_Width: 0.500 || 13BMD:BMDVt2.C
# Beamline.BMD_Vertical_Center: -19.950 || 13BMD:BMDVt2.D
# Beamline.Sample_X: 326.174 || 13BMD:m70.VAL
# Beamline.Sample_Z__focus: 72.748 || 13BMD:m33.VAL
# Beamline.Sample_Y__height: 62.116 || 13BMD:m34.VAL
# ScanParameters.Start: Scan.Member: Value
# ScanParameters.E0: 12658.0
# ScanParameters.Legend: Start       Stop       Step       Npts       Time   Kspace?
# ScanParameters.Region1: -150.00    -10.000     5.0000     29.000     2.0000   0
# ScanParameters.Region2: -10.000     30.000    0.25000     161.00     2.0000   0
# ScanParameters.Region3: 2.8061     14.000   0.039978     281.00     2.0000   1
# ScanParameters.End: here
#-------------------------
#  energy  itrans  i0
   12508.000   501201.40    121135.40 
   12513.000   499610.40    120643.40 
   12518.000   499956.40    120656.40 
   12523.000   497679.40    120050.40 
   12528.000   496651.40    119625.40 
   12533.000   494682.40    119057.40 
   12538.000   495736.40    119219.40 
   12543.000   498116.40    119684.40 
   12548.000   498562.40    119681.40 
   12553.000   498154.40    119540.40 
   12558.000   498679.40    119577.40 
   12563.000   498396.40    119447.40 
   12568.000   498584.40    119368.40 
   12573.000   498331.40    119193.40 
   12578.000   499833.40    119538.40 
   12583.000   500985.40    119693.40 
   12588.000   499343.40    119203.40 
   12593.000   500785.40    119528.40 
   12598.000   501857.40    119698.40 
   12603.000   502051.40    119756.40 
   12608.000   501770.40    119650.40 
   12613.000   500325.40    119255.40 
   12618.000   500496.40    119311.40 
   12623.000   501141.40    119563.40 
   12628.000   500053.40    119427.40 
   12633.000   498253.40    119269.40 
   12638.000   496672.40    119428.40 
   12643.000   491601.40    119449.40 
   12648.000   478796.40    119399.40 
   12648.250   478134.40    119642.40 
   12648.500   477368.40    119790.40 
   12648.750   476491.40    119831.40 
   12649.000   474517.40    119787.40 
   12649.250   473471.40    119803.40 
   12649.500   470605.40    119610.40 
   12649.750   469057.40    119602.40 
   12650.000   466756.40    119607.40 
   12650.250   464731.40    119710.40 
   12650.500   462702.40    119711.40 
   12650.750   459735.40    119795.40 
   12651.000   456799.40    119654.40 
   12651.250   453086.40    119726.40 
   12651.500   448397.40    119676.40 
   12651.750   444558.40    119601.40 
   12652.000   438763.40    119600.40 
   12652.250   433979.40    119583.40 
   12652.500   427140.40    119720.40 
   12652.750   423475.40    120336.40 
   12653.000   413903.40    120262.40 
   12653.250   402419.40    120212.40 
   12653.500   392173.40    119947.40 
   12653.750   377958.40    120028.40 
   12654.000   365014.40    120012.40 
   12654.250   345542.40    119983.40 
   12654.500   324134.40    120153.40 
   12654.750   305537.40    120287.40 
   12655.000   277898.40    120453.40 
   12655.250   253664.40    120457.40 
   12655.500   220335.40    120357.40 
   12655.750   194599.40    120275.40 
   12656.000   160672.40    120197.40 
   12656.250   131509.40    120133.40 
   12656.500   113835.40    120165.40 
   12656.750    97200.40    120173.40 
   12657.000    91159.40    120117.40 
   12657.250    89186.40    120088.40 
   12657.500    92244.40    120051.40 
   12657.750   100548.40    120024.40 
   12658.000   112320.40    120020.40 
   12658.250   122982.40    120007.40 
   12658.500   138629.40    120023.40 
   12658.750   150849.40    120010.40 
   12659.000   167382.40    119887.40 
   12659.250   185069.40    119986.40 
   12659.500   197428.40    120055.40 
   12659.750   213544.40    120057.40 
   12660.000   224311.40    119939.40 
   12660.250   238014.40    119855.40 
   12660.500   247053.40    120033.40 
   12660.750   256325.40    119870.40 
   12661.000   262685.40    119938.40 
   12661.250   264994.40    119938.40 
   12661.500   265215.40    119936.40 
   12661.750   263465.40    119917.40 
   12662.000   259415.40    119766.40 
   12662.250   255988.40    119777.40 
   12662.500   251204.40    119822.40 
   12662.750   246097.40    119826.40 
   12663.000   242718.40    119847.40 
   12663.250   238350.40    119842.40 
   12663.500   235398.40    119832.40 
   12663.750   231715.40    119797.40 
   12664.000   228400.40    119755.40 
   12664.250   226583.40    119836.40 
   12664.500   224451.40    119867.40 
   12664.750   222931.40    119729.40 
   12665.000   221701.40    119645.40 
   12665.250   221197.40    119610.40 
   12665.500   221160.40    119692.40 
   12665.750   221496.40    119769.40 
   12666.000   222843.40    120363.40 
   12666.250   223208.40    120367.40 
   12666.500   223272.40    120259.40 
   12666.750   223526.40    120215.40 
   12667.000   223689.40    120259.40 
   12667.250   223818.40    120275.40 
   12667.500   223644.40    120189.40 
   12667.750   223703.40    120277.40 
   12668.000   223435.40    120197.40 
   12668.250   223401.40    120244.40 
   12668.500   223117.40    120223.40 
   12668.750   223058.40    120274.40 
   12669.000   222778.40    120286.40 
   12669.250   222428.40    120195.40 
   12669.500   222274.40    120164.40 
   12669.750   222032.40    120121.40 
   12670.000   222032.40    120165.40 
   12670.250   222113.40    120212.40 
   12670.500   222002.40    120143.40 
   12670.750   222089.40    120137.40 
   12671.000   222324.40    120165.40 
   12671.250   222574.40    120183.40 
   12671.500   222875.40    120139.40 
   12671.750   223332.40    120173.40 
   12672.000   223645.40    120059.40 
   12672.250   224183.40    120097.40 
   12672.500   224923.40    120150.40 
   12672.750   225550.40    120166.40 
   12673.000   226082.40    120159.40 
   12673.250   226589.40    120066.40 
   12673.500   226983.40    120027.40 
   12673.750   227631.40    120038.40 
   12674.000   227991.40    120012.40 
   12674.250   228776.40    120103.40 
   12674.500   229064.40    120014.40 
   12674.750   229369.40    119981.40 
   12675.000   229707.40    119923.40 
   12675.250   230230.40    120031.40 
   12675.500   230617.40    120057.40 
   12675.750   230751.40    119995.40 
   12676.000   230861.40    119915.40 
   12676.250   230978.40    119840.40 
   12676.500   231202.40    119885.40 
   12676.750   231266.40    119815.40 
   12677.000   231617.40    119944.40 
   12677.250   231791.40    119943.40 
   12677.500   231775.40    119885.40 
   12677.750   231931.40    119904.40 
   12678.000   232216.40    120038.40 
   12678.250   232135.40    119961.40 
   12678.500   232149.40    119949.40 
   12678.750   231833.40    119800.40 
   12679.000   231860.40    119786.40 
   12679.250   231839.40    119810.40 
   12679.500   231936.40    119857.40 
   12679.750   231879.40    119852.40 
   12680.000   231714.40    119805.40 
   12680.250   231632.40    119764.40 
   12680.500   231697.40    119791.40 
   12680.750   231691.40    119835.40 
   12681.000   231693.40    119836.40 
   12681.250   231598.40    119848.40 
   12681.500   231521.40    119798.40 
   12681.750   231402.40    119708.40 
   12682.000   231351.40    119702.40 
   12682.250   231086.40    119556.40 
   12682.500   231053.40    119532.40 
   12682.750   231254.40    119629.40 
   12683.000   231194.40    119596.40 
   12683.250   231362.40    119688.40 
   12683.500   231447.40    119722.40 
   12683.750   231474.40    119753.40 
   12684.000   231178.40    119591.40 
   12684.250   231065.40    119515.40 
   12684.500   231014.40    119509.40 
   12684.750   231257.40    119627.40 
   12685.000   231166.40    119581.40 
   12685.250   230989.40    119502.40 
   12685.500   231010.40    119497.40 
   12685.750   230949.40    119459.40 
   12686.000   230993.40    119508.40 
   12686.250   231082.40    119562.40 
   12686.500   231006.40    119548.40 
   12686.750   230989.40    119528.40 
   12687.000   230836.40    119444.40 
   12687.250   230956.40    119512.40 
   12687.500   230996.40    119566.40 
   12687.750   231066.40    119604.40 
   12688.000   230972.40    119561.40 
   12688.860   230904.40    119537.40 
   12689.730   230609.40    119407.40 
   12690.620   230560.40    119409.40 
   12691.520   230425.40    119395.40 
   12692.430   230268.40    119432.40 
   12693.350   229993.40    119380.40 
   12694.280   229630.40    119385.40 
   12695.230   229356.40    119386.40 
   12696.190   228793.40    119296.40 
   12697.160   228276.40    119109.40 
   12698.140   228878.40    119482.40 
   12699.130   228855.40    119439.40 
   12700.140   228886.40    119370.40 
   12701.160   229041.40    119271.40 
   12702.190   229642.40    119275.40 
   12703.240   230366.40    119230.40 
   12704.290   231465.40    119307.40 
   12705.360   232426.40    119315.40 
   12706.440   234101.40    119792.40 
   12707.530   234908.40    119840.40 
   12708.640   235398.40    119860.40 
   12709.750   235742.40    119851.40 
   12710.880   235787.40    119807.40 
   12712.020   235598.40    119697.40 
   12713.180   235726.40    119775.40 
   12714.340   235747.40    119789.40 
   12715.520   235594.40    119707.40 
   12716.710   235596.40    119703.40 
   12717.910   235657.40    119706.40 
   12719.130   235659.40    119654.40 
   12720.350   235580.40    119595.40 
   12721.590   235755.40    119586.40 
   12722.840   235902.40    119625.40 
   12724.100   235857.40    119576.40 
   12725.380   236074.40    119654.40 
   12726.670   236059.40    119663.40 
   12727.960   235969.40    119632.40 
   12729.280   235922.40    119616.40 
   12730.600   235776.40    119588.40 
   12731.940   235748.40    119703.40 
   12733.280   235265.40    119567.40 
   12734.640   235028.40    119567.40 
   12736.020   234797.40    119580.40 
   12737.400   234649.40    119522.40 
   12738.800   234148.40    119282.40 
   12740.210   233498.40    118912.40 
   12741.630   235522.40    119811.40 
   12743.060   235434.40    119679.40 
   12744.510   235536.40    119598.40 
   12745.960   235738.40    119566.40 
   12747.430   235994.40    119507.40 
   12748.920   236338.40    119462.40 
   12750.410   236814.40    119471.40 
   12751.920   237391.40    119531.40 
   12753.440   237689.40    119386.40 
   12754.970   238316.40    119447.40 
   12756.510   238648.40    119323.40 
   12758.060   239058.40    119346.40 
   12759.630   239545.40    119436.40 
   12761.210   239829.40    119426.40 
   12762.800   239943.40    119399.40 
   12764.410   239756.40    119281.40 
   12766.020   239675.40    119233.40 
   12767.650   239652.40    119252.40 
   12769.290   239637.40    119248.40 
   12770.940   239506.40    119221.40 
   12772.610   238203.40    118600.40 
   12774.290   240153.40    119606.40 
   12775.970   239921.40    119434.40 
   12777.680   239802.40    119433.40 
   12779.390   239674.40    119420.40 
   12781.110   240553.40    119950.40 
   12782.850   240246.40    119878.40 
   12784.600   239835.40    119834.40 
   12786.360   239561.40    119836.40 
   12788.140   239133.40    119792.40 
   12789.920   239042.40    119895.40 
   12791.720   238692.40    119853.40 
   12793.540   238349.40    119814.40 
   12795.360   238156.40    119801.40 
   12797.190   238077.40    119805.40 
   12799.040   237909.40    119730.40 
   12800.900   237685.40    119585.40 
   12802.770   236586.40    118996.40 
   12804.660   239321.40    120226.40 
   12806.550   239229.40    119988.40 
   12808.460   239551.40    119927.40 
   12810.380   239849.40    119796.40 
   12812.310   240533.40    119803.40 
   12814.260   241105.40    119742.40 
   12816.210   241496.40    119572.40 
   12818.180   242436.40    119624.40 
   12820.170   243266.40    119645.40 
   12822.160   243864.40    119542.40 
   12824.170   244893.40    119700.40 
   12826.180   245441.40    119643.40 
   12828.210   245902.40    119569.40 
   12830.250   246476.40    119641.40 
   12832.310   247118.40    119787.40 
   12834.380   247261.40    119733.40 
   12836.460   247137.40    119567.40 
   12838.550   246466.40    119230.40 
   12840.650   246625.40    119295.40 
   12842.760   247675.40    119782.40 
   12844.890   247348.40    119669.40 
   12847.030   246812.40    119497.40 
   12849.180   246760.40    119551.40 
   12851.350   246667.40    119585.40 
   12853.520   246081.40    119483.40 
   12855.710   244244.40    118774.40 
   12857.910   246739.40    120115.40 
   12860.130   245668.40    119760.40 
   12862.350   244856.40    119526.40 
   12864.590   244327.40    119424.40 
   12866.840   243611.40    119221.40 
   12869.100   242485.40    118784.40 
   12871.370   244326.40    119745.40 
   12873.660   243856.40    119516.40 
   12875.960   243581.40    119322.40 
   12878.270   243987.40    119461.40 
   12880.590   243988.40    119398.40 
   12882.920   244169.40    119323.40 
   12885.270   244628.40    119381.40 
   12887.630   245057.40    119365.40 
   12890.000   246022.40    119623.40 
   12892.380   247311.40    120005.40 
   12894.780   247972.40    120086.40 
   12897.190   248124.40    119865.40 
   12899.610   248747.40    119904.40 
   12902.040   249293.40    119943.40 
   12904.480   249796.40    119930.40 
   12906.940   250410.40    119991.40 
   12909.410   250696.40    119844.40 
   12911.890   251035.40    119759.40 
   12914.380   251870.40    119931.40 
   12916.880   252192.40    119905.40 
   12919.400   252480.40    119840.40 
   12921.930   252821.40    119854.40 
   12924.470   253195.40    119880.40 
   12927.030   253355.40    119818.40 
   12929.590   253544.40    119806.40 
   12932.170   253775.40    119795.40 
   12934.760   253661.40    119677.40 
   12937.360   254024.40    119812.40 
   12939.980   254223.40    119868.40 
   12942.610   253880.40    119680.40 
   12945.240   254156.40    119838.40 
   12947.900   253942.40    119734.40 
   12950.560   253758.40    119720.40 
   12953.230   253791.40    119781.40 
   12955.920   253659.40    119766.40 
   12958.620   253127.40    119568.40 
   12961.330   253053.40    119574.40 
   12964.060   252767.40    119508.40 
   12966.790   252641.40    119456.40 
   12969.540   253239.40    119736.40 
   12972.300   252996.40    119618.40 
   12975.080   252998.40    119574.40 
   12977.860   253304.40    119646.40 
   12980.660   253377.40    119581.40 
   12983.470   253813.40    119654.40 
   12986.290   254021.40    119600.40 
   12989.130   254485.40    119641.40 
   12991.970   254485.40    119426.40 
   12994.830   255404.40    119638.40 
   12997.700   255811.40    119591.40 
   13000.580   256305.40    119576.40 
   13003.480   256788.40    119530.40 
   13006.380   257402.40    119551.40 
   13009.300   257877.40    119511.40 
   13012.230   258515.40    119538.40 
   13015.180   258910.40    119519.40 
   13018.130   258601.40    119154.40 
   13021.100   259675.40    119484.40 
   13024.080   260511.40    119621.40 
   13027.070   260595.40    119512.40 
   13030.080   260766.40    119440.40 
   13033.090   261033.40    119452.40 
   13036.120   262525.40    120037.40 
   13039.160   262957.40    120168.40 
   13042.220   262514.40    119919.40 
   13045.280   262532.40    119846.40 
   13048.360   263028.40    120057.40 
   13051.450   263168.40    120074.40 
   13054.550   263239.40    120045.40 
   13057.670   262951.40    119894.40 
   13060.790   263019.40    119891.40 
   13063.930   263030.40    119879.40 
   13067.080   262786.40    119697.40 
   13070.240   263226.40    119886.40 
   13073.420   263363.40    119907.40 
   13076.600   263477.40    119873.40 
   13079.800   263739.40    119904.40 
   13083.010   263609.40    119793.40 
   13086.240   263500.40    119628.40 
   13089.470   263928.40    119721.40 
   13092.720   264178.40    119745.40 
   13095.980   264273.40    119638.40 
   13099.250   265009.40    119841.40 
   13102.540   265196.40    119775.40 
   13105.840   265458.40    119756.40 
   13109.140   265501.40    119565.40 
   13112.470   266101.40    119616.40 
   13115.800   266554.40    119646.40 
   13119.140   266970.40    119632.40 
   13122.500   267388.40    119629.40 
   13125.870   267851.40    119588.40 
   13129.250   268360.40    119648.40 
   13132.650   268592.40    119556.40 
   13136.050   269008.40    119553.40 
   13139.470   269632.40    119647.40 
   13142.900   270188.40    119702.40 
   13146.350   270280.40    119597.40 
   13149.800   270593.40    119553.40 
   13153.270   270896.40    119538.40 
   13156.750   270906.40    119398.40 
   13160.240   271161.40    119413.40 
   13163.740   271383.40    119400.40 
   13167.260   271672.40    119410.40 
   13170.790   272263.40    119548.40 
   13174.330   272330.40    119520.40 
   13177.880   272441.40    119464.40 
   13181.440   272392.40    119379.40 
   13185.020   272426.40    119342.40 
   13188.610   272930.40    119506.40 
   13192.210   272863.40    119372.40 
   13195.820   272951.40    119289.40 
   13199.450   273516.40    119477.40 
   13203.090   273705.40    119484.40 
   13206.740   273768.40    119400.40 
   13210.400   273896.40    119340.40 
   13214.070   275470.40    119911.40 
   13217.760   274763.40    119488.40 
   13221.460   277056.40    120388.40 
   13225.170   276735.40    120045.40 
   13228.890   276767.40    119954.40 
   13232.630   276857.40    119844.40 
   13236.370   277458.40    119908.40 
   13240.130   277787.40    119891.40 
   13243.910   278233.40    119925.40 
   13247.690   278301.40    119786.40 
   13251.490   278600.40    119750.40 
   13255.290   278791.40    119648.40 
   13259.110   279189.40    119657.40 
   13262.950   279209.40    119529.40 
   13266.790   279056.40    119281.40 
   13270.650   276279.40    117925.40 
   13274.520   275075.40    117319.40 
   13278.400   279684.40    119156.40 
   13282.290   280740.40    119469.40 
   13286.200   280683.40    119271.40 
   13290.110   282176.40    119777.40 
   13294.040   282869.40    119917.40 
   13297.990   282434.40    119611.40 
   13301.940   282337.40    119446.40 
   13305.910   284003.40    120004.40 
   13309.890   284245.40    120003.40 
   13313.880   284552.40    119990.40 
   13317.880   284474.40    119835.40 
   13321.900   283980.40    119563.40 
   13325.920   284318.40    119561.40 
   13329.960   284894.40    119692.40 
   13334.010   285648.40    119909.40 
   13338.080   286094.40    119957.40 
   13342.150   286143.40    119870.40 
   13346.240   286508.40    119904.40 
   13350.340   286593.40    119783.40 
   13354.460   286693.40    119701.40 
   13358.580   286836.40    119648.40 
   13362.720   287075.40    119635.40 
   13366.870   287189.40    119541.40 
   13371.030   287616.40    119571.40 
   13375.200   287829.40    119514.40 
   13379.390   288100.40    119485.40 
   13383.580   288600.40    119522.40 
   13387.790   289015.40    119546.40 
   13392.020   289432.40    119589.40 
   13396.250   289897.40    119597.40 
   13400.500   290268.40    119596.40 
   13404.760   290833.40    119667.40 
