#XDI/1.1  GSE/1.0
# Column.1: energy eV
# Column.2: itrans
# Column.3: i0
# Scan.end_time: 2008-04-10 19:16:47
# Scan.start_time: 2008-04-10 18:59:04
# Element.symbol:  Se
# Element.edge:  K
# Facility.Name:  APS
# Beamline.Name:  13-BM-D
# Beamline.xray_source:  bending magnet
# Mono.d_spacing:  3.13555
# Mono.name: Si 111
# Beamline.Storage_Ring_Current: 102.151 || S:SRcurrentAI.VAL
# Beamline.FOE_Mono_angle_readback: 9.0947 || 13BMA:m17.RBV
# Beamline.Mono_Energy_drive_val: 12508.0000 || 13BMA:E:Energy.VAL
# Beamline.Mono_Energy_readback: 12503.0242 || 13BMA:E:E_RBV
# Beamline.Mono_Beam_Offset: 20.0000 || 13BMA:E:height.VAL
# Beamline.I0_sensitivity_value: 5 || 13BMD:A3sens_num.VAL
# Beamline.I0_sensitivity_value: nA/V || 13BMD:A3sens_unit.VAL
# Beamline.I1_sensitivity_value: 20 || 13BMD:A2sens_num.VAL
# Beamline.I1_sensitivity_value: nA/V || 13BMD:A2sens_unit.VAL
# Beamline.FOE_Mono_Yout: 10.4439 || 13BMA:m10.VAL
# Beamline.FOE_Mono_Yin: 10.6474 || 13BMA:m11.VAL
# Beamline.FOE_Mono_Yup: 9.7047 || 13BMA:m12.VAL
# Beamline.FOE_Mono_Cage_Y: 0.000 || 13BMA:m13.VAL
# Beamline.FOE_Mono_Z: 64.134 || 13BMA:m14.VAL
# Beamline.FOE_Mono_angle: 9.0947 || 13BMA:m17.VAL
# Beamline.BMD_Horiz_Width: 5.000 || 13BMD:BMDHt2.C
# Beamline.BMD_Horiz_Center: -2.000 || 13BMD:BMDHt2.D
# Beamline.BMD_Vertical_Width: 0.500 || 13BMD:BMDVt2.C
# Beamline.BMD_Vertical_Center: -19.950 || 13BMD:BMDVt2.D
# Beamline.Sample_X: 326.174 || 13BMD:m70.VAL
# Beamline.Sample_Z__focus: 0.652 || 13BMD:m33.VAL
# Beamline.Sample_Y__height: 35.616 || 13BMD:m34.VAL
# ScanParameters.Start: Scan.Member: Value
# ScanParameters.E0: 12658.0
# ScanParameters.Legend: Start       Stop       Step       Npts       Time   Kspace?
# ScanParameters.Region1: -150.00    -10.000     5.0000     29.000     2.0000   0
# ScanParameters.Region2: -10.000     30.000    0.25000     161.00     2.0000   0
# ScanParameters.Region3: 2.8061     14.000   0.039978     281.00     2.0000   1
# ScanParameters.End: here
#-------------------------
#  energy  itrans  i0
   12508.000   400269.40    122148.40 
   12513.000   395813.40    120671.40 
   12518.000   394661.40    120264.40 
   12523.000   393226.40    119658.40 
   12528.000   393443.40    119578.40 
   12533.000   394658.40    119804.40 
   12538.000   394418.40    119616.40 
   12543.000   393448.40    119210.40 
   12548.000   393590.40    119141.40 
   12553.000   394687.40    119314.40 
   12558.000   395066.40    119294.40 
   12563.000   395246.40    119235.40 
   12568.000   395316.40    119141.40 
   12573.000   396314.40    119300.40 
   12578.000   396577.40    119251.40 
   12583.000   396820.40    119195.40 
   12588.000   396376.40    118944.40 
   12593.000   398638.40    119522.40 
   12598.000   398478.40    119377.40 
   12603.000   398054.40    119118.40 
   12608.000   399078.40    119311.40 
   12613.000   399913.40    119432.40 
   12618.000   399818.40    119316.40 
   12623.000   399491.40    119158.40 
   12628.000   400013.40    119226.40 
   12633.000   400706.40    119431.40 
   12638.000   400020.40    119275.40 
   12643.000   399018.40    119167.40 
   12648.000   396947.40    119109.40 
   12648.250   397284.40    119242.40 
   12648.500   397625.40    119425.40 
   12648.750   397978.40    119569.40 
   12649.000   397855.40    119585.40 
   12649.250   397660.40    119559.40 
   12649.500   397393.40    119564.40 
   12649.750   397214.40    119573.40 
   12650.000   396864.40    119539.40 
   12650.250   396596.40    119552.40 
   12650.500   396321.40    119540.40 
   12650.750   396067.40    119575.40 
   12651.000   395508.40    119488.40 
   12651.250   395103.40    119521.40 
   12651.500   394591.40    119504.40 
   12651.750   394218.40    119500.40 
   12652.000   393483.40    119471.40 
   12652.250   393127.40    119507.40 
   12652.500   391870.40    119355.40 
   12652.750   391293.40    119357.40 
   12653.000   392106.40    119859.40 
   12653.250   391205.40    119889.40 
   12653.500   390286.40    119870.40 
   12653.750   388933.40    119829.40 
   12654.000   388114.40    119925.40 
   12654.250   386626.40    119950.40 
   12654.500   385098.40    120066.40 
   12654.750   383616.40    120087.40 
   12655.000   381436.40    120222.40 
   12655.250   379132.40    120222.40 
   12655.500   375239.40    120123.40 
   12655.750   371844.40    120064.40 
   12656.000   365875.40    119889.40 
   12656.250   359299.40    119855.40 
   12656.500   353578.40    119931.40 
   12656.750   344075.40    119929.40 
   12657.000   336700.40    119881.40 
   12657.250   325405.40    119892.40 
   12657.500   316373.40    119889.40 
   12657.750   304754.40    119903.40 
   12658.000   294282.40    119862.40 
   12658.250   287324.40    119858.40 
   12658.500   279639.40    119856.40 
   12658.750   275141.40    119806.40 
   12659.000   271012.40    119819.40 
   12659.250   268234.40    119849.40 
   12659.500   266974.40    119815.40 
   12659.750   266173.40    119848.40 
   12660.000   265854.40    119827.40 
   12660.250   265597.40    119734.40 
   12660.500   265772.40    119754.40 
   12660.750   266080.40    119738.40 
   12661.000   266528.40    119604.40 
   12661.250   267453.40    119735.40 
   12661.500   268424.40    119743.40 
   12661.750   269260.40    119754.40 
   12662.000   270244.40    119684.40 
   12662.250   270945.40    119666.40 
   12662.500   272122.40    119640.40 
   12662.750   273600.40    119651.40 
   12663.000   274761.40    119625.40 
   12663.250   276533.40    119563.40 
   12663.500   278110.40    119639.40 
   12663.750   280271.40    119615.40 
   12664.000   282605.40    119657.40 
   12664.250   284190.40    119625.40 
   12664.500   286424.40    119591.40 
   12664.750   288274.40    119664.40 
   12665.000   290358.40    119596.40 
   12665.250   292104.40    119586.40 
   12665.500   294605.40    119551.40 
   12665.750   297329.40    119587.40 
   12666.000   299351.40    119555.40 
   12666.250   302404.40    119595.40 
   12666.500   305923.40    120124.40 
   12666.750   308496.40    120050.40 
   12667.000   310449.40    120134.40 
   12667.250   312603.40    120163.40 
   12667.500   313872.40    120121.40 
   12667.750   314564.40    120155.40 
   12668.000   315013.40    120133.40 
   12668.250   314649.40    120007.40 
   12668.500   314294.40    120000.40 
   12668.750   313978.40    120069.40 
   12669.000   313095.40    120049.40 
   12669.250   311940.40    120046.40 
   12669.500   311089.40    120049.40 
   12669.750   309536.40    119940.40 
   12670.000   308639.40    120025.40 
   12670.250   307023.40    119895.40 
   12670.500   306244.40    119960.40 
   12670.750   305014.40    119903.40 
   12671.000   304059.40    119809.40 
   12671.250   304035.40    120007.40 
   12671.500   303579.40    119968.40 
   12671.750   303353.40    119914.40 
   12672.000   302902.40    119804.40 
   12672.250   302897.40    119827.40 
   12672.500   302984.40    119864.40 
   12672.750   303266.40    119914.40 
   12673.000   303436.40    119953.40 
   12673.250   303578.40    119951.40 
   12673.500   303551.40    119845.40 
   12673.750   303745.40    119800.40 
   12674.000   304187.40    119858.40 
   12674.250   304536.40    119800.40 
   12674.500   305103.40    119799.40 
   12674.750   305317.40    119716.40 
   12675.000   305999.40    119727.40 
   12675.250   306607.40    119760.40 
   12675.500   307181.40    119769.40 
   12675.750   307723.40    119772.40 
   12676.000   307929.40    119646.40 
   12676.250   308170.40    119594.40 
   12676.500   308898.40    119725.40 
   12676.750   309037.40    119676.40 
   12677.000   309050.40    119640.40 
   12677.250   309415.40    119737.40 
   12677.500   309693.40    119811.40 
   12677.750   309662.40    119800.40 
   12678.000   309616.40    119796.40 
   12678.250   309215.40    119675.40 
   12678.500   309237.40    119738.40 
   12678.750   309079.40    119731.40 
   12679.000   308759.40    119674.40 
   12679.250   308480.40    119601.40 
   12679.500   308276.40    119636.40 
   12679.750   309737.40    120259.40 
   12680.000   309457.40    120219.40 
   12680.250   309392.40    120285.40 
   12680.500   309152.40    120238.40 
   12680.750   308712.40    120173.40 
   12681.000   308514.40    120147.40 
   12681.250   308207.40    120101.40 
   12681.500   308239.40    120165.40 
   12681.750   308318.40    120272.40 
   12682.000   308039.40    120229.40 
   12682.250   307689.40    120132.40 
   12682.500   307436.40    120054.40 
   12682.750   307413.40    120081.40 
   12683.000   307930.40    120255.40 
   12683.250   308063.40    120272.40 
   12683.500   307717.40    120118.40 
   12683.750   307635.40    120021.40 
   12684.000   308149.40    120147.40 
   12684.250   308610.40    120185.40 
   12684.500   308602.40    120051.40 
   12684.750   308979.40    119986.40 
   12685.000   309108.40    119941.40 
   12685.250   309680.40    119952.40 
   12685.500   310403.40    120066.40 
   12685.750   310903.40    120074.40 
   12686.000   311046.40    119989.40 
   12686.250   311194.40    119920.40 
   12686.500   311561.40    119932.40 
   12686.750   311941.40    119976.40 
   12687.000   312131.40    119996.40 
   12687.250   312044.40    119898.40 
   12687.500   311722.40    119742.40 
   12687.750   311999.40    119879.40 
   12688.000   311842.40    119817.40 
   12688.860   311085.40    119737.40 
   12689.730   310464.40    119844.40 
   12690.620   309820.40    119872.40 
   12691.520   309349.40    119852.40 
   12692.430   308981.40    119716.40 
   12693.350   309424.40    119804.40 
   12694.280   309644.40    119729.40 
   12695.230   309683.40    119588.40 
   12696.190   309766.40    119492.40 
   12697.160   309907.40    119415.40 
   12698.140   311325.40    119902.40 
   12699.130   311182.40    119907.40 
   12700.140   310548.40    119739.40 
   12701.160   310329.40    119736.40 
   12702.190   309857.40    119675.40 
   12703.240   309513.40    119674.40 
   12704.290   309516.40    119748.40 
   12705.360   309490.40    119694.40 
   12706.440   309735.40    119588.40 
   12707.530   311691.40    119926.40 
   12708.640   313714.40    120194.40 
   12709.750   314873.40    120180.40 
   12710.880   315848.40    120173.40 
   12712.020   316077.40    120096.40 
   12713.180   316647.40    120195.40 
   12714.340   316711.40    120175.40 
   12715.520   316744.40    120161.40 
   12716.710   316751.40    120143.40 
   12717.910   316792.40    120195.40 
   12719.130   316417.40    120114.40 
   12720.350   316410.40    120214.40 
   12721.590   315815.40    120113.40 
   12722.840   315077.40    120036.40 
   12724.100   314519.40    120033.40 
   12725.380   313723.40    119951.40 
   12726.670   313345.40    120024.40 
   12727.960   312976.40    120027.40 
   12729.280   312888.40    120042.40 
   12730.600   313136.40    120088.40 
   12731.940   313358.40    120039.40 
   12733.280   313644.40    120047.40 
   12734.640   313783.40    119978.40 
   12736.020   314154.40    120050.40 
   12737.400   314393.40    120055.40 
   12738.800   313852.40    119756.40 
   12740.210   313385.40    119478.40 
   12741.630   315804.40    120335.40 
   12743.060   315309.40    120097.40 
   12744.510   315181.40    119943.40 
   12745.960   315299.40    119846.40 
   12747.430   315688.40    119826.40 
   12748.920   315747.40    119751.40 
   12750.410   316025.40    119775.40 
   12751.920   315769.40    119740.40 
   12753.440   315801.40    119777.40 
   12754.970   316084.40    119874.40 
   12756.510   316220.40    119819.40 
   12758.060   316467.40    119778.40 
   12759.630   317064.40    119714.40 
   12761.210   317881.40    119673.40 
   12762.800   319254.40    119786.40 
   12764.410   320226.40    119820.40 
   12766.020   320513.40    119704.40 
   12767.650   320796.40    119692.40 
   12769.290   321174.40    119787.40 
   12770.940   320543.40    119540.40 
   12772.610   318663.40    118912.40 
   12774.290   321547.40    119988.40 
   12775.970   321077.40    119899.40 
   12777.680   320210.40    119775.40 
   12779.390   319381.40    119677.40 
   12781.110   318609.40    119632.40 
   12782.850   317762.40    119601.40 
   12784.600   316918.40    119578.40 
   12786.360   316316.40    119564.40 
   12788.140   315805.40    119530.40 
   12789.920   315559.40    119531.40 
   12791.720   315645.40    119545.40 
   12793.540   315749.40    119486.40 
   12795.360   316276.40    119490.40 
   12797.190   316625.40    119479.40 
   12799.040   317127.40    119493.40 
   12800.900   317166.40    119349.40 
   12802.770   316028.40    118742.40 
   12804.660   320012.40    120086.40 
   12806.550   319786.40    119836.40 
   12808.460   319553.40    119577.40 
   12810.380   319636.40    119467.40 
   12812.310   320320.40    119545.40 
   12814.260   320581.40    119473.40 
   12816.210   320972.40    119458.40 
   12818.180   321204.40    119421.40 
   12820.170   321490.40    119410.40 
   12822.160   321889.40    119473.40 
   12824.170   322489.40    119530.40 
   12826.180   322562.40    119415.40 
   12828.210   322948.40    119376.40 
   12830.250   323527.40    119438.40 
   12832.310   323593.40    119345.40 
   12834.380   323894.40    119375.40 
   12836.460   323952.40    119249.40 
   12838.550   323494.40    118966.40 
   12840.650   323983.40    119066.40 
   12842.760   325559.40    119618.40 
   12844.890   324780.40    119402.40 
   12847.030   324010.40    119202.40 
   12849.180   324029.40    119262.40 
   12851.350   323773.40    119165.40 
   12853.520   323926.40    119205.40 
   12855.710   322324.40    118492.40 
   12857.910   326067.40    119863.40 
   12860.130   324749.40    119393.40 
   12862.350   324112.40    119292.40 
   12864.590   323830.40    119292.40 
   12866.840   322831.40    119051.40 
   12869.100   321440.40    118638.40 
   12871.370   323214.40    119413.40 
   12873.660   323105.40    119397.40 
   12875.960   322937.40    119339.40 
   12878.270   323123.40    119341.40 
   12880.590   323093.40    119227.40 
   12882.920   323558.40    119206.40 
   12885.270   323685.40    119038.40 
   12887.630   324387.40    119127.40 
   12890.000   324827.40    119105.40 
   12892.380   325501.40    119178.40 
   12894.780   326280.40    119298.40 
   12897.190   326804.40    119323.40 
   12899.610   327186.40    119266.40 
   12902.040   327568.40    119239.40 
   12904.480   328007.40    119221.40 
   12906.940   328687.40    119271.40 
   12909.410   329130.40    119263.40 
   12911.890   329345.40    119188.40 
   12914.380   329714.40    119197.40 
   12916.880   329849.40    119140.40 
   12919.400   329902.40    119064.40 
   12921.930   330190.40    119127.40 
   12924.470   330555.40    119198.40 
   12927.030   330693.40    119221.40 
   12929.590   330475.40    119175.40 
   12932.170   330404.40    119176.40 
   12934.760   330041.40    119037.40 
   12937.360   330611.40    119239.40 
   12939.980   330466.40    119151.40 
   12942.610   330016.40    118958.40 
   12945.240   330601.40    119188.40 
   12947.900   330149.40    118962.40 
   12950.560   330116.40    118928.40 
   12953.230   330145.40    118886.40 
   12955.920   330692.40    119025.40 
   12958.620   331026.40    119098.40 
   12961.330   331492.40    119169.40 
   12964.060   331097.40    118972.40 
   12966.790   330969.40    118860.40 
   12969.540   331221.40    118913.40 
   12972.300   331203.40    118858.40 
   12975.080   331516.40    118957.40 
   12977.860   331971.40    119008.40 
   12980.660   332125.40    118943.40 
   12983.470   332298.40    118905.40 
   12986.290   332530.40    118872.40 
   12989.130   332971.40    118918.40 
   12991.970   332469.40    118594.40 
   12994.830   333648.40    118905.40 
   12997.700   333843.40    118840.40 
   13000.580   334762.40    119008.40 
   13003.480   335088.40    118962.40 
   13006.380   335352.40    118875.40 
   13009.300   335513.40    118766.40 
   13012.230   335846.40    118742.40 
   13015.180   336294.40    118762.40 
   13018.130   335844.40    118510.40 
   13021.100   337518.40    118997.40 
   13024.080   337949.40    119052.40 
   13027.070   337919.40    118950.40 
   13030.080   337782.40    118825.40 
   13033.090   337556.40    118731.40 
   13036.120   337708.40    118711.40 
   13039.160   339002.40    119146.40 
   13042.220   339676.40    119357.40 
   13045.280   339636.40    119314.40 
   13048.360   339703.40    119281.40 
   13051.450   339648.40    119194.40 
   13054.550   339841.40    119206.40 
   13057.670   339849.40    119174.40 
   13060.790   340310.40    119283.40 
   13063.930   340389.40    119249.40 
   13067.080   340172.40    119098.40 
   13070.240   340473.40    119132.40 
   13073.420   340724.40    119100.40 
   13076.600   341513.40    119278.40 
   13079.800   341337.40    119096.40 
   13083.010   341633.40    119110.40 
   13086.240   341955.40    119082.40 
   13089.470   342295.40    119130.40 
   13092.720   342035.40    118940.40 
   13095.980   342369.40    118929.40 
   13099.250   343027.40    119006.40 
   13102.540   343386.40    119054.40 
   13105.840   343825.40    119074.40 
   13109.140   343874.40    118995.40 
   13112.470   344482.40    119067.40 
   13115.800   344917.40    119094.40 
   13119.140   344988.40    118994.40 
   13122.500   345616.40    119088.40 
   13125.870   345960.40    119079.40 
   13129.250   346349.40    119121.40 
   13132.650   346403.40    119011.40 
   13136.050   346461.40    118946.40 
   13139.470   346761.40    118936.40 
   13142.900   347179.40    119023.40 
   13146.350   347539.40    118999.40 
   13149.800   347680.40    118952.40 
   13153.270   348169.40    119024.40 
   13156.750   348303.40    118984.40 
   13160.240   348353.40    118907.40 
   13163.740   348349.40    118852.40 
   13167.260   348651.40    118859.40 
   13170.790   349024.40    118949.40 
   13174.330   348973.40    118856.40 
   13177.880   349267.40    118841.40 
   13181.440   349650.40    118914.40 
   13185.020   349797.40    118881.40 
   13188.610   349952.40    118862.40 
   13192.210   350160.40    118818.40 
   13195.820   350297.40    118777.40 
   13199.450   350448.40    118744.40 
   13203.090   350608.40    118683.40 
   13206.740   351012.40    118711.40 
   13210.400   351696.40    118834.40 
   13214.070   351934.40    118796.40 
   13217.760   350926.40    118361.40 
   13221.460   355518.40    119746.40 
   13225.170   354694.40    119388.40 
   13228.890   354874.40    119320.40 
   13232.630   355228.40    119287.40 
   13236.370   355453.40    119299.40 
   13240.130   355611.40    119215.40 
   13243.910   355979.40    119186.40 
   13247.690   356241.40    119174.40 
   13251.490   356069.40    119015.40 
   13255.290   356849.40    119123.40 
   13259.110   357027.40    119077.40 
   13262.950   356780.40    118885.40 
   13266.790   355974.40    118545.40 
   13270.650   352362.40    117217.40 
   13274.520   351060.40    116683.40 
   13278.400   356917.40    118528.40 
   13282.290   357935.40    118781.40 
   13286.200   357595.40    118567.40 
   13290.110   359565.40    119116.40 
   13294.040   359978.40    119155.40 
   13297.990   359398.40    118875.40 
   13301.940   359836.40    118925.40 
   13305.910   361480.40    119363.40 
   13309.890   361856.40    119365.40 
   13313.880   361887.40    119274.40 
   13317.880   361790.40    119157.40 
   13321.900   361290.40    118876.40 
   13325.920   361606.40    118903.40 
   13329.960   362310.40    119025.40 
   13334.010   363427.40    119326.40 
   13338.080   363679.40    119285.40 
   13342.150   363975.40    119266.40 
   13346.240   364032.40    119177.40 
   13350.340   364763.40    119318.40 
   13354.460   365137.40    119290.40 
   13358.580   364407.40    118989.40 
   13362.720   364596.40    118918.40 
   13366.870   364878.40    118897.40 
   13371.030   365323.40    118941.40 
   13375.200   365557.40    118925.40 
   13379.390   366272.40    118985.40 
   13383.580   366249.40    118875.40 
   13387.790   366716.40    118915.40 
   13392.020   367090.40    118929.40 
   13396.250   367437.40    118904.40 
   13400.500   368111.40    119025.40 
   13404.760   368549.40    119036.40 
