#XDI/1.1  GSE/1.0
# Column.1: energy eV
# Column.2: itrans
# Column.3: i0
# Scan.end_time: 2008-04-10 18:59:03
# Scan.start_time: 2008-04-10 18:41:21
# Element.symbol:  Se
# Element.edge:  K
# Facility.Name:  APS
# Beamline.Name:  13-BM-D
# Beamline.xray_source:  bending magnet
# Mono.d_spacing:  3.13555
# Mono.name: Si 111
# Beamline.Storage_Ring_Current: 102.013 || S:SRcurrentAI.VAL
# Beamline.FOE_Mono_angle_readback: 9.0947 || 13BMA:m17.RBV
# Beamline.Mono_Energy_drive_val: 12508.0000 || 13BMA:E:Energy.VAL
# Beamline.Mono_Energy_readback: 12503.0242 || 13BMA:E:E_RBV
# Beamline.Mono_Beam_Offset: 20.0000 || 13BMA:E:height.VAL
# Beamline.I0_sensitivity_value: 5 || 13BMD:A3sens_num.VAL
# Beamline.I0_sensitivity_value: nA/V || 13BMD:A3sens_unit.VAL
# Beamline.I1_sensitivity_value: 20 || 13BMD:A2sens_num.VAL
# Beamline.I1_sensitivity_value: nA/V || 13BMD:A2sens_unit.VAL
# Beamline.FOE_Mono_Yout: 10.4439 || 13BMA:m10.VAL
# Beamline.FOE_Mono_Yin: 10.6474 || 13BMA:m11.VAL
# Beamline.FOE_Mono_Yup: 9.7047 || 13BMA:m12.VAL
# Beamline.FOE_Mono_Cage_Y: 0.000 || 13BMA:m13.VAL
# Beamline.FOE_Mono_Z: 64.134 || 13BMA:m14.VAL
# Beamline.FOE_Mono_angle: 9.0947 || 13BMA:m17.VAL
# Beamline.BMD_Horiz_Width: 5.000 || 13BMD:BMDHt2.C
# Beamline.BMD_Horiz_Center: -2.000 || 13BMD:BMDHt2.D
# Beamline.BMD_Vertical_Width: 0.500 || 13BMD:BMDVt2.C
# Beamline.BMD_Vertical_Center: -19.950 || 13BMD:BMDVt2.D
# Beamline.Sample_X: 326.174 || 13BMD:m70.VAL
# Beamline.Sample_Z__focus: 0.652 || 13BMD:m33.VAL
# Beamline.Sample_Y__height: 35.616 || 13BMD:m34.VAL
# ScanParameters.Start: Scan.Member: Value
# ScanParameters.E0: 12658.0
# ScanParameters.Legend: Start       Stop       Step       Npts       Time   Kspace?
# ScanParameters.Region1: -150.00    -10.000     5.0000     29.000     2.0000   0
# ScanParameters.Region2: -10.000     30.000    0.25000     161.00     2.0000   0
# ScanParameters.Region3: 2.8061     14.000   0.039978     281.00     2.0000   1
# ScanParameters.End: here
#-------------------------
#  energy  itrans  i0
   12508.000   395711.40    120807.40 
   12513.000   392629.40    119755.40 
   12518.000   391516.40    119361.40 
   12523.000   390399.40    118891.40 
   12528.000   393097.40    119497.40 
   12533.000   394739.40    119867.40 
   12538.000   393981.40    119544.40 
   12543.000   392466.40    118952.40 
   12548.000   392566.40    118852.40 
   12553.000   393755.40    119062.40 
   12558.000   394286.40    119124.40 
   12563.000   394571.40    119075.40 
   12568.000   395925.40    119328.40 
   12573.000   396159.40    119306.40 
   12578.000   396038.40    119117.40 
   12583.000   395884.40    118963.40 
   12588.000   395670.40    118777.40 
   12593.000   397694.40    119314.40 
   12598.000   397268.40    119070.40 
   12603.000   396888.40    118792.40 
   12608.000   397826.40    119000.40 
   12613.000   398488.40    119102.40 
   12618.000   398533.40    118989.40 
   12623.000   398434.40    118872.40 
   12628.000   399056.40    119043.40 
   12633.000   399654.40    119179.40 
   12638.000   398959.40    118982.40 
   12643.000   397918.40    118855.40 
   12648.000   396771.40    119052.40 
   12648.250   396819.40    119141.40 
   12648.500   397278.40    119313.40 
   12648.750   397321.40    119373.40 
   12649.000   397171.40    119389.40 
   12649.250   396730.40    119290.40 
   12649.500   396600.40    119348.40 
   12649.750   396478.40    119393.40 
   12650.000   396185.40    119372.40 
   12650.250   395993.40    119401.40 
   12650.500   395477.40    119341.40 
   12650.750   395416.40    119379.40 
   12651.000   395015.40    119345.40 
   12651.250   395838.40    119741.40 
   12651.500   395852.40    119912.40 
   12651.750   395590.40    119932.40 
   12652.000   394777.40    119878.40 
   12652.250   394414.40    119906.40 
   12652.500   393419.40    119841.40 
   12652.750   392728.40    119820.40 
   12653.000   391649.40    119741.40 
   12653.250   390422.40    119684.40 
   12653.500   389735.40    119728.40 
   12653.750   388201.40    119626.40 
   12654.000   387320.40    119716.40 
   12654.250   386034.40    119793.40 
   12654.500   384318.40    119854.40 
   12654.750   382758.40    119872.40 
   12655.000   380122.40    119840.40 
   12655.250   378024.40    119907.40 
   12655.500   374526.40    119924.40 
   12655.750   371449.40    119991.40 
   12656.000   365416.40    119789.40 
   12656.250   358732.40    119736.40 
   12656.500   352632.40    119748.40 
   12656.750   343185.40    119726.40 
   12657.000   336019.40    119730.40 
   12657.250   324405.40    119666.40 
   12657.500   315616.40    119740.40 
   12657.750   304141.40    119703.40 
   12658.000   293791.40    119737.40 
   12658.250   286732.40    119692.40 
   12658.500   278842.40    119620.40 
   12658.750   274273.40    119530.40 
   12659.000   270367.40    119607.40 
   12659.250   267522.40    119557.40 
   12659.500   266377.40    119576.40 
   12659.750   265426.40    119554.40 
   12660.000   265108.40    119533.40 
   12660.250   264915.40    119487.40 
   12660.500   264934.40    119437.40 
   12660.750   265541.40    119531.40 
   12661.000   266117.40    119497.40 
   12661.250   266905.40    119549.40 
   12661.500   267931.40    119561.40 
   12661.750   268656.40    119525.40 
   12662.000   269752.40    119521.40 
   12662.250   270475.40    119443.40 
   12662.500   271585.40    119454.40 
   12662.750   273169.40    119437.40 
   12663.000   274447.40    119505.40 
   12663.250   276308.40    119467.40 
   12663.500   277803.40    119517.40 
   12663.750   279895.40    119487.40 
   12664.000   282222.40    119512.40 
   12664.250   283838.40    119485.40 
   12664.500   286656.40    119715.40 
   12664.750   289283.40    120081.40 
   12665.000   291396.40    120023.40 
   12665.250   293178.40    120025.40 
   12665.500   295751.40    120023.40 
   12665.750   298175.40    119960.40 
   12666.000   300476.40    120017.40 
   12666.250   303701.40    120119.40 
   12666.500   305636.40    120021.40 
   12666.750   308133.40    119929.40 
   12667.000   309799.40    119901.40 
   12667.250   311994.40    119949.40 
   12667.500   313351.40    119974.40 
   12667.750   313920.40    119923.40 
   12668.000   314506.40    119961.40 
   12668.250   314580.40    120005.40 
   12668.500   314112.40    119976.40 
   12668.750   313575.40    119947.40 
   12669.000   312576.40    119863.40 
   12669.250   311339.40    119857.40 
   12669.500   310147.40    119729.40 
   12669.750   308976.40    119804.40 
   12670.000   308062.40    119852.40 
   12670.250   306505.40    119746.40 
   12670.500   305650.40    119791.40 
   12670.750   304610.40    119806.40 
   12671.000   303775.40    119764.40 
   12671.250   303451.40    119786.40 
   12671.500   302900.40    119739.40 
   12671.750   302709.40    119734.40 
   12672.000   302725.40    119781.40 
   12672.250   302707.40    119804.40 
   12672.500   302754.40    119798.40 
   12672.750   302678.40    119730.40 
   12673.000   302641.40    119709.40 
   12673.250   302936.40    119720.40 
   12673.500   302919.40    119638.40 
   12673.750   303380.40    119685.40 
   12674.000   303725.40    119694.40 
   12674.250   303956.40    119603.40 
   12674.500   304452.40    119594.40 
   12674.750   304875.40    119593.40 
   12675.000   305658.40    119641.40 
   12675.250   306115.40    119626.40 
   12675.500   306888.40    119663.40 
   12675.750   307073.40    119574.40 
   12676.000   307430.40    119489.40 
   12676.250   307821.40    119468.40 
   12676.500   308345.40    119539.40 
   12676.750   308733.40    119599.40 
   12677.000   309055.40    119675.40 
   12677.250   309265.40    119696.40 
   12677.500   309182.40    119660.40 
   12677.750   308991.40    119566.40 
   12678.000   310344.40    120116.40 
   12678.250   310544.40    120182.40 
   12678.500   310208.40    120138.40 
   12678.750   309973.40    120077.40 
   12679.000   309722.40    120031.40 
   12679.250   309469.40    120001.40 
   12679.500   309223.40    119982.40 
   12679.750   308925.40    119935.40 
   12680.000   308841.40    119997.40 
   12680.250   308743.40    120045.40 
   12680.500   308500.40    120006.40 
   12680.750   308080.40    119938.40 
   12681.000   308088.40    119994.40 
   12681.250   307722.40    119953.40 
   12681.500   307983.40    120094.40 
   12681.750   307694.40    120038.40 
   12682.000   307267.40    119929.40 
   12682.250   307400.40    120011.40 
   12682.500   307073.40    119930.40 
   12682.750   306909.40    119877.40 
   12683.000   306868.40    119874.40 
   12683.250   306888.40    119848.40 
   12683.500   307232.40    119968.40 
   12683.750   307443.40    119939.40 
   12684.000   307429.40    119879.40 
   12684.250   307558.40    119791.40 
   12684.500   308010.40    119840.40 
   12684.750   308260.40    119755.40 
   12685.000   308957.40    119887.40 
   12685.250   309237.40    119792.40 
   12685.500   309728.40    119832.40 
   12685.750   310099.40    119793.40 
   12686.000   310456.40    119783.40 
   12686.250   310829.40    119795.40 
   12686.500   311087.40    119793.40 
   12686.750   311461.40    119823.40 
   12687.000   311682.40    119819.40 
   12687.250   311825.40    119864.40 
   12687.500   311562.40    119731.40 
   12687.750   311298.40    119631.40 
   12688.000   311244.40    119624.40 
   12688.860   310768.40    119636.40 
   12689.730   309887.40    119656.40 
   12690.620   309385.40    119741.40 
   12691.520   308446.40    119553.40 
   12692.430   308740.40    119662.40 
   12693.350   308756.40    119587.40 
   12694.280   309154.40    119584.40 
   12695.230   309362.40    119508.40 
   12696.190   309313.40    119362.40 
   12697.160   309439.40    119247.40 
   12698.140   310611.40    119688.40 
   12699.130   310310.40    119572.40 
   12700.140   311399.40    120098.40 
   12701.160   311422.40    120217.40 
   12702.190   311036.40    120173.40 
   12703.240   310734.40    120170.40 
   12704.290   310343.40    120121.40 
   12705.360   310333.40    120081.40 
   12706.440   310831.40    120061.40 
   12707.530   311861.40    120032.40 
   12708.640   313099.40    119992.40 
   12709.750   314212.40    119949.40 
   12710.880   315323.40    120046.40 
   12712.020   315856.40    120033.40 
   12713.180   316449.40    120160.40 
   12714.340   316374.40    120092.40 
   12715.520   316181.40    119986.40 
   12716.710   316334.40    120007.40 
   12717.910   316122.40    119941.40 
   12719.130   315936.40    119976.40 
   12720.350   315509.40    119905.40 
   12721.590   315151.40    119910.40 
   12722.840   314770.40    119895.40 
   12724.100   313987.40    119895.40 
   12725.380   313720.40    119986.40 
   12726.670   313378.40    120057.40 
   12727.960   312875.40    120014.40 
   12729.280   312385.40    119867.40 
   12730.600   312387.40    119837.40 
   12731.940   312806.40    119873.40 
   12733.280   313210.40    119888.40 
   12734.640   313434.40    119878.40 
   12736.020   313589.40    119835.40 
   12737.400   313570.40    119757.40 
   12738.800   313431.40    119574.40 
   12740.210   313119.40    119396.40 
   12741.630   315213.40    120158.40 
   12743.060   314904.40    119962.40 
   12744.510   314750.40    119828.40 
   12745.960   315271.40    119852.40 
   12747.430   315756.40    119861.40 
   12748.920   315891.40    119827.40 
   12750.410   315666.40    119686.40 
   12751.920   315558.40    119686.40 
   12753.440   315908.40    119819.40 
   12754.970   315718.40    119760.40 
   12756.510   315851.40    119708.40 
   12758.060   316117.40    119654.40 
   12759.630   317006.40    119739.40 
   12761.210   317692.40    119612.40 
   12762.800   318799.40    119647.40 
   12764.410   319925.40    119725.40 
   12766.020   320560.40    119741.40 
   12767.650   320409.40    119584.40 
   12769.290   320293.40    119518.40 
   12770.940   321074.40    119782.40 
   12772.610   320500.40    119589.40 
   12774.290   322994.40    120553.40 
   12775.970   322230.40    120369.40 
   12777.680   321569.40    120291.40 
   12779.390   320745.40    120237.40 
   12781.110   319888.40    120178.40 
   12782.850   318977.40    120078.40 
   12784.600   318338.40    120147.40 
   12786.360   317571.40    120044.40 
   12788.140   317441.40    120183.40 
   12789.920   316948.40    120065.40 
   12791.720   317216.40    120180.40 
   12793.540   317460.40    120160.40 
   12795.360   317825.40    120152.40 
   12797.190   317608.40    119895.40 
   12799.040   318163.40    119898.40 
   12800.900   318320.40    119828.40 
   12802.770   317258.40    119244.40 
   12804.660   321176.40    120532.40 
   12806.550   320918.40    120276.40 
   12808.460   320729.40    120048.40 
   12810.380   320882.40    119932.40 
   12812.310   321124.40    119888.40 
   12814.260   321659.40    119944.40 
   12816.210   322395.40    120045.40 
   12818.180   322747.40    120047.40 
   12820.170   322540.40    119876.40 
   12822.160   322717.40    119792.40 
   12824.170   323182.40    119878.40 
   12826.180   323796.40    119921.40 
   12828.210   323958.40    119831.40 
   12830.250   324546.40    119869.40 
   12832.310   324623.40    119799.40 
   12834.380   324804.40    119720.40 
   12836.460   325169.40    119750.40 
   12838.550   324939.40    119552.40 
   12840.650   325398.40    119659.40 
   12842.760   326725.40    120110.40 
   12844.890   325929.40    119885.40 
   12847.030   325646.40    119818.40 
   12849.180   325384.40    119792.40 
   12851.350   325372.40    119781.40 
   12853.520   325478.40    119788.40 
   12855.710   323557.40    118994.40 
   12857.910   326962.40    120251.40 
   12860.130   326126.40    119966.40 
   12862.350   325713.40    119890.40 
   12864.590   325091.40    119807.40 
   12866.840   324055.40    119543.40 
   12869.100   322411.40    119033.40 
   12871.370   324564.40    119944.40 
   12873.660   323961.40    119771.40 
   12875.960   323597.40    119622.40 
   12878.270   323926.40    119706.40 
   12880.590   323982.40    119611.40 
   12882.920   324626.40    119637.40 
   12885.270   325007.40    119586.40 
   12887.630   325492.40    119563.40 
   12890.000   325812.40    119497.40 
   12892.380   325988.40    119430.40 
   12894.780   326681.40    119486.40 
   12897.190   327212.40    119500.40 
   12899.610   327586.40    119485.40 
   12902.040   328215.40    119536.40 
   12904.480   328842.40    119578.40 
   12906.940   329362.40    119557.40 
   12909.410   329622.40    119490.40 
   12911.890   329902.40    119438.40 
   12914.380   330253.40    119453.40 
   12916.880   330826.40    119543.40 
   12919.400   330903.40    119511.40 
   12921.930   330859.40    119420.40 
   12924.470   331126.40    119473.40 
   12927.030   330932.40    119394.40 
   12929.590   330775.40    119331.40 
   12932.170   330907.40    119388.40 
   12934.760   330622.40    119315.40 
   12937.360   330813.40    119357.40 
   12939.980   330724.40    119300.40 
   12942.610   330311.40    119126.40 
   12945.240   331233.40    119421.40 
   12947.900   331242.40    119427.40 
   12950.560   331451.40    119467.40 
   12953.230   331074.40    119267.40 
   12955.920   331178.40    119259.40 
   12958.620   331441.40    119287.40 
   12961.330   331813.40    119337.40 
   12964.060   331958.40    119337.40 
   12966.790   331797.40    119241.40 
   12969.540   331836.40    119177.40 
   12972.300   332146.40    119221.40 
   12975.080   332379.40    119293.40 
   12977.860   332749.40    119336.40 
   12980.660   332850.40    119298.40 
   12983.470   333033.40    119233.40 
   12986.290   333163.40    119171.40 
   12989.130   333269.40    119058.40 
   12991.970   333239.40    118918.40 
   12994.830   334691.40    119305.40 
   12997.700   334782.40    119178.40 
   13000.580   335285.40    119198.40 
   13003.480   335520.40    119136.40 
   13006.380   335930.40    119117.40 
   13009.300   336379.40    119108.40 
   13012.230   336568.40    119035.40 
   13015.180   336642.40    118935.40 
   13018.130   338233.40    119393.40 
   13021.100   340119.40    119925.40 
   13024.080   339655.40    119726.40 
   13027.070   339469.40    119524.40 
   13030.080   339615.40    119533.40 
   13033.090   339662.40    119500.40 
   13036.120   339910.40    119527.40 
   13039.160   340177.40    119620.40 
   13042.220   340506.40    119697.40 
   13045.280   340350.40    119605.40 
   13048.360   340332.40    119518.40 
   13051.450   340662.40    119577.40 
   13054.550   340651.40    119556.40 
   13057.670   340781.40    119551.40 
   13060.790   340871.40    119528.40 
   13063.930   341349.40    119604.40 
   13067.080   341284.40    119522.40 
   13070.240   341621.40    119554.40 
   13073.420   341361.40    119375.40 
   13076.600   341657.40    119377.40 
   13079.800   342205.40    119446.40 
   13083.010   342688.40    119536.40 
   13086.240   342929.40    119479.40 
   13089.470   343137.40    119435.40 
   13092.720   343721.40    119540.40 
   13095.980   344023.40    119536.40 
   13099.250   343930.40    119384.40 
   13102.540   344088.40    119307.40 
   13105.840   344474.40    119325.40 
   13109.140   345063.40    119406.40 
   13112.470   345343.40    119397.40 
   13115.800   345556.40    119309.40 
   13119.140   345994.40    119362.40 
   13122.500   345728.40    119176.40 
   13125.870   346590.40    119295.40 
   13129.250   346613.40    119223.40 
   13132.650   347187.40    119323.40 
   13136.050   347458.40    119289.40 
   13139.470   347152.40    119100.40 
   13142.900   347520.40    119147.40 
   13146.350   348029.40    119220.40 
   13149.800   348645.40    119311.40 
   13153.270   348519.40    119158.40 
   13156.750   348753.40    119194.40 
   13160.240   349080.40    119188.40 
   13163.740   349192.40    119182.40 
   13167.260   349536.40    119218.40 
   13170.790   349741.40    119188.40 
   13174.330   350282.40    119327.40 
   13177.880   350310.40    119265.40 
   13181.440   350263.40    119153.40 
   13185.020   350074.40    119026.40 
   13188.610   350846.40    119193.40 
   13192.210   351721.40    119392.40 
   13195.820   352789.40    119657.40 
   13199.450   353361.40    119709.40 
   13203.090   353640.40    119721.40 
   13206.740   354063.40    119738.40 
   13210.400   354096.40    119650.40 
   13214.070   353887.40    119464.40 
   13217.760   352853.40    119031.40 
   13221.460   356794.40    120204.40 
   13225.170   355827.40    119763.40 
   13228.890   355627.40    119604.40 
   13232.630   355656.40    119457.40 
   13236.370   356219.40    119548.40 
   13240.130   356443.40    119499.40 
   13243.910   357219.40    119633.40 
   13247.690   357653.40    119639.40 
   13251.490   357816.40    119603.40 
   13255.290   357299.40    119286.40 
   13259.110   357492.40    119262.40 
   13262.950   357708.40    119210.40 
   13266.790   357361.40    119001.40 
   13270.650   353484.40    117591.40 
   13274.520   352448.40    117147.40 
   13278.400   357637.40    118809.40 
   13282.290   358666.40    119042.40 
   13286.200   358329.40    118826.40 
   13290.110   360057.40    119300.40 
   13294.040   361265.40    119581.40 
   13297.990   360819.40    119351.40 
   13301.940   360482.40    119136.40 
   13305.910   362158.40    119595.40 
   13309.890   362237.40    119513.40 
   13313.880   362662.40    119533.40 
   13317.880   362686.40    119452.40 
   13321.900   362569.40    119322.40 
   13325.920   362412.40    119200.40 
   13329.960   362746.40    119185.40 
   13334.010   363871.40    119454.40 
   13338.080   364133.40    119446.40 
   13342.150   364823.40    119540.40 
   13346.240   365074.40    119525.40 
   13350.340   365346.40    119485.40 
   13354.460   365408.40    119397.40 
   13358.580   365587.40    119344.40 
   13362.720   365674.40    119278.40 
   13366.870   365755.40    119181.40 
   13371.030   365972.40    119122.40 
   13375.200   366580.40    119233.40 
   13379.390   366947.40    119230.40 
   13383.580   367247.40    119217.40 
   13387.790   367657.40    119221.40 
   13392.020   367818.40    119169.40 
   13396.250   368383.40    119194.40 
   13400.500   368541.40    119172.40 
   13404.760   370739.40    119748.40 
