# XDI/1.0
# Column.1: energy eV
# Column.2: i0
# Column.3: itrans
# Beamline.name: SSRL 4-1
# Detector.I0: N2 15cm
# Detector.I1: N2 30cm
# Detector.I2: N2 15cm
# Element.edge: K
# Element.symbol: Cr
# Mono.d_spacing: 3.13550
# Mono.name: Si(111)
# Mono.notes: unfocused, detuned 30%,counter clockwise at E=6200eV
# Sample.formula: Cr2S3
# Sample.name: Cr2S3 chromium sesquisulfide
# Sample.prep: powder, mixed 1:50 with B(OH)3 by wt
# Sample.reference: none
# Sample.temperature: room temperature
# Scan.start_time: 1997-01-20 15:45:55
# ///
#    Note: mono d_spacing is nominal!
#     exafs to K15
#     381  E XMU I0
#-------------
#   energy   i0   itrans
    5788.9990  242417.410000  139708.593042
    5799.6250  243269.410000  144649.592219
    5810.2500  243766.410000  149528.592794
    5820.8750  244203.410000  154525.591832
    5831.4990  244836.410000  159847.601906
    5842.1250  245144.410000  165075.602424
    5852.7490  245460.410000  170401.594458
    5863.3740  245716.410000  175882.589281
    5874.0000  245471.410000  181153.598925
    5884.6250  245816.410000  186951.599378
    5895.2500  246337.410000  193021.596486
    5905.8750  246496.410000  198958.593355
    5916.5000  246124.410000  204612.600942
    5927.1240  246516.410000  211087.589462
    5937.7490  246427.410000  217226.604132
    5948.3750  246719.410000  223877.596655
    5959.0020  246378.410000  230023.598554
    5959.7580  246587.410000  230731.598815
    5960.5160  246092.410000  230702.597840
    5961.2730  246180.410000  231287.598464
    5962.0310  246033.410000  231555.598204
    5962.7890  246235.410000  232284.596649
    5963.5440  246079.410000  232658.596676
    5964.3030  246322.410000  233347.597719
    5965.0620  245684.410000  233201.597816
    5965.8170  246118.410000  234028.598005
    5966.5760  246073.410000  234516.598067
    5967.3330  245802.410000  234721.597840
    5968.0920  245738.410000  235146.596881
    5968.8480  245703.410000  235581.597147
    5969.6050  245912.410000  236310.598630
    5970.3650  245605.410000  236456.598141
    5971.1200  245489.410000  236790.598478
    5971.8800  244887.410000  236662.599001
    5972.6380  244536.410000  236769.597062
    5973.3920  243454.410000  236180.597747
    5974.1500  243228.410000  236592.599069
    5974.9090  243288.410000  237378.596937
    5975.6670  242929.410000  237418.597490
    5976.4230  242988.410000  237686.597037
    5977.1820  243174.410000  238171.597676
    5977.9410  244013.410000  239453.598005
    5978.6970  244651.410000  240611.599007
    5979.4530  245082.410000  241495.597070
    5980.2100  245348.410000  242179.598139
    5980.9700  245011.410000  242265.599008
    5981.7280  245192.410000  242909.597958
    5982.4850  245275.410000  243369.597853
    5983.2420  244686.410000  243209.597937
    5984.0000  242835.410000  241780.597917
    5984.7570  235175.410000  234710.597973
    5985.5160  223492.410000  223356.598001
    5986.2740  228947.410000  228492.597906
    5987.0300  238247.410000  238111.598002
    5987.7890  241684.410000  241313.598012
    5988.5440  242905.410000  241641.597978
    5989.3040  243607.410000  240352.598138
    5990.0600  244290.410000  238564.597444
    5990.8200  244198.410000  236509.597995
    5991.5760  244532.410000  235973.598114
    5992.3330  244703.410000  236053.597144
    5993.0900  244733.410000  235576.597573
    5993.8480  243892.410000  232402.598351
    5994.6050  242679.410000  224944.598250
    5995.3630  240810.410000  211742.590969
    5996.1220  240310.410000  197543.588776
    5996.8790  240928.410000  186154.604496
    5997.6350  242409.410000  178955.589834
    5998.3940  243968.410000  175800.591471
    5999.1530  244583.410000  175585.603977
    5999.9090  244853.410000  177859.605324
    6000.6670  244754.410000  181230.590234
    6001.4240  245169.410000  184523.594907
    6002.1810  244940.410000  185993.598503
    6002.9400  245340.410000  185767.589715
    6003.6970  245203.410000  183610.600047
    6004.4550  245290.410000  181371.598219
    6005.2120  245272.410000  179380.593700
    6005.9700  245423.410000  177858.594739
    6006.7270  245426.410000  176560.597612
    6007.4860  245487.410000  175554.592485
    6008.2400  245619.410000  174657.589204
    6009.0000  245339.410000  173465.598255
    6009.0120  245418.390000  173434.597444
    6009.0390  245080.370000  173211.553075
    6009.0860  245499.360000  173412.533104
    6009.1550  245503.330000  173339.484763
    6009.2400  245198.280000  173054.398861
    6009.3480  246032.230000  173526.329620
    6009.4720  246079.190000  173410.236165
    6009.6160  246019.110000  173188.122302
    6009.7820  246260.050000  173172.982089
    6009.9660  246076.950000  172883.834469
    6010.1670  246727.860000  173186.690389
    6010.3900  246668.770000  172964.526531
    6010.6310  247086.640000  173139.329701
    6010.8930  247081.530000  173097.126729
    6011.1700  247347.410000  173227.916980
    6011.4710  247390.270000  173390.682743
    6011.7910  247694.110000  173747.441203
    6012.1290  248184.950000  174370.166701
    6012.4840  248477.800000  174849.884952
    6012.8610  248631.620000  175322.592601
    6013.2550  248968.440000  176007.277118
    6013.6710  249187.250000  176535.964746
    6014.1050  249161.050000  176933.627175
    6014.5610  249502.840000  177533.282413
    6015.0350  250142.620000  178298.896385
    6015.5270  250306.390000  178617.532064
    6016.0370  250858.160000  179137.126036
    6016.5680  251346.910000  179638.715260
    6017.1170  250873.660000  179422.285765
    6017.6880  251884.390000  180303.837220
    6018.2760  252145.120000  180737.390188
    6018.8830  252499.840000  181355.902916
    6019.5120  252932.550000  181965.416974
    6020.1580  253660.250000  182945.916921
    6020.8260  253867.950000  183560.396567
    6021.5090  254375.620000  184390.869184
    6022.2140  254582.310000  185160.330697
    6022.9400  255163.970000  186290.756118
    6023.6850  255924.620000  187711.169309
    6024.4440  256162.280000  188944.599905
    6025.2270  256979.920000  190765.981587
    6026.0270  257797.550000  192693.354190
    6026.8520  258021.170000  194120.720435
    6027.6900  258584.780000  195878.057349
    6028.5480  258859.390000  197379.390843
    6029.4270  259574.980000  199301.708790
    6030.3240  260088.560000  201348.006868
    6031.2400  260926.140000  203896.289296
    6032.1780  261404.720000  206174.574234
    6033.1350  262078.280000  208671.832343
    6034.1090  262529.810000  210635.054715
    6035.1020  263372.370000  212730.283001
    6036.1160  263927.910000  214102.526840
    6037.1470  264404.440000  215130.710793
    6038.2020  265220.940000  216213.882489
    6039.2730  265945.440000  216986.051997
    6040.3620  266665.940000  217555.200558
    6041.4730  267264.440000  218040.337538
    6042.6040  267920.910000  218603.464679
    6043.7520  268830.370000  219484.559461
    6044.9190  269504.840000  220147.648187
    6046.1080  270194.280000  220594.738527
    6047.3130  270797.750000  220745.804201
    6048.5400  271622.160000  221010.847258
    6049.7860  272360.590000  221310.874906
    6051.0500  273449.000000  222021.901589
    6052.3330  273914.440000  222426.897008
    6053.6350  274947.810000  223231.867943
    6054.9590  275647.220000  223743.847536
    6056.3000  276519.590000  224197.815792
    6057.6630  277180.970000  224443.748916
    6059.0440  277588.340000  224599.659184
    6060.4440  278445.690000  225444.595241
    6061.8600  278925.030000  226152.474120
    6063.2990  279802.370000  227478.364446
    6064.7570  280817.690000  229099.239225
    6066.2340  281703.000000  230928.081016
    6067.7290  282869.310000  233000.916925
    6069.2450  283460.620000  234530.725994
    6070.7830  284548.910000  236307.554688
    6072.3360  285128.190000  237897.323951
    6073.9100  286123.470000  240427.101407
    6075.5020  287321.750000  243838.877231
    6077.1140  288434.000000  247530.619691
    6078.7450  289100.250000  251041.336739
    6080.3960  290358.500000  255029.051572
    6082.0660  291246.720000  258485.769725
    6083.7560  292081.940000  261627.458914
    6085.4650  293494.160000  265170.135646
    6087.1910  294663.340000  268326.776839
    6088.9400  295767.560000  271135.402295
    6090.7050  296309.720000  273115.031879
    6092.4890  297772.910000  275787.659236
    6094.2960  298765.060000  277743.246173
    6096.1210  300180.250000  280008.843769
    6097.9650  300908.370000  281637.400517
    6099.8260  302500.530000  284034.937379
    6101.7090  303215.660000  285531.504498
    6103.6130  304589.780000  287669.999386
    6105.5330  305710.910000  289352.502548
    6107.4740  306672.000000  290548.998768
    6109.4310  308043.090000  291974.463824
    6111.4120  309305.190000  293216.938467
    6113.4090  310869.280000  294798.373287
    6115.4260  311624.340000  295998.809960
    6117.4640  313276.410000  298265.222741
    6119.5190  314611.440000  300557.626287
    6121.5970  315477.500000  302722.030714
    6123.6930  317059.530000  306005.375271
    6125.8050  318037.560000  309047.747932
    6127.9380  319478.560000  312642.090900
    6130.0910  320467.560000  316026.403157
    6132.2610  322060.560000  319842.715979
    6134.4530  323335.560000  323160.028015
    6136.6640  324730.530000  326919.311931
    6138.8930  325884.530000  330504.563204
    6141.1430  327670.470000  334934.814308
    6143.4140  328555.440000  338590.065997
    6145.7010  330146.370000  342832.274375
    6148.0070  331677.310000  346979.464621
    6150.3330  333054.250000  350840.656261
    6152.6800  334570.160000  354807.849337
    6155.0450  335849.060000  358623.995327
    6157.4280  337060.970000  362212.158686
    6159.8320  338764.870000  366394.275085
    6162.2560  340012.750000  370053.406423
    6164.6990  341354.620000  373881.494758
    6167.1600  342873.500000  377965.561557
    6169.6410  344352.340000  382145.634225
    6172.1410  346161.190000  387100.726217
    6174.6590  347337.030000  391627.752080
    6177.1980  348715.840000  396396.779684
    6179.7550  350302.690000  400995.782304
    6182.3340  352259.500000  405387.791919
    6184.9310  353645.280000  408831.739636
    6187.5470  355147.090000  412292.703169
    6190.1840  356735.870000  415801.651802
    6192.8400  358002.660000  419138.584797
    6195.5100  359724.410000  423219.522650
    6198.2050  361739.190000  427786.432924
    6200.9160  363300.940000  432052.334947
    6203.6480  364510.660000  436138.213504
    6206.4010  366145.410000  440901.083389
    6209.1700  367785.120000  445819.898116
    6211.9590  369197.840000  450581.716882
    6214.7710  370974.530000  456034.519798
    6217.5970  372368.250000  461196.354499
    6220.4460  373968.910000  466900.123094
    6223.3130  375805.590000  472986.885458
    6226.2000  377636.280000  479183.642003
    6229.1050  379442.940000  485493.417669
    6232.0310  380931.590000  491484.107905
    6234.9740  381233.220000  495835.844778
    6237.9380  381620.840000  500241.534230
    6240.9200  386078.470000  510243.232737
    6243.9220  378935.090000  504592.878992
    6246.9440  388648.720000  521752.533761
    6249.9840  391134.310000  529387.143701
    6253.0440  392554.910000  535859.781692
    6256.1250  394242.470000  542642.392758
    6259.2240  395826.030000  549050.924876
    6262.3390  397789.590000  555929.560873
    6265.4780  399712.160000  562611.135098
    6268.6340  401285.720000  568804.615148
    6271.8120  403703.250000  575889.198432
    6275.0070  405545.780000  582092.671735
    6278.2220  406607.280000  587256.214353
    6281.4540  408934.780000  594327.658683
    6284.7090  410938.280000  601366.119491
    6287.9810  412186.780000  607432.644692
    6291.2720  414730.280000  615747.071638
    6294.5840  416100.750000  622321.424206
    6297.9140  418089.220000  630056.850829
    6301.2630  420232.660000  638047.230935
    6304.6330  421606.120000  644940.595949
    6308.0210  423606.560000  653092.974645
    6311.4290  426331.970000  662608.365530
    6314.8540  428611.410000  671563.720503
    6318.3020  429339.810000  678393.975026
    6321.7650  431294.220000  687162.295435
    6325.2520  433532.590000  696614.638674
    6328.7570  435354.000000  705537.901853
    6332.2790  437346.370000  714853.116301
    6335.8220  439327.720000  724104.377186
    6339.3830  441710.090000  733984.610593
    6342.9650  443256.440000  742688.844151
    6346.5640  445580.780000  752553.021667
    6350.1860  447914.120000  762663.199423
    6353.8250  449274.440000  771252.352891
    6357.4850  451233.750000  781255.544448
    6361.1630  453074.060000  791234.670883
    6364.8590  455096.340000  801715.841550
    6368.5740  457138.620000  812118.910497
    6372.3100  459293.910000  822895.017623
    6376.0670  461387.190000  833532.073559
    6379.8400  464235.440000  845596.112593
    6383.6340  465091.690000  853894.174741
    6387.4470  466865.940000  864086.215320
    6391.2790  468983.160000  874948.267382
    6395.1320  471367.370000  886300.243746
    6399.0030  473392.590000  897247.231274
    6402.8920  475183.810000  907848.212342
    6406.8010  477027.000000  918810.219176
    6410.7320  479661.190000  931383.113829
    6414.6800  481324.370000  942367.012648
    6418.6460  484049.560000  955851.912843
    6422.6340  485630.720000  967211.897008
    6426.6390  488009.870000  980428.705948
    6430.6670  489803.000000  992852.655098
    6434.7080  491680.160000  1005623.397086
    6438.7740  494021.280000  1019581.260619
    6442.8590  495590.370000  1031994.089270
    6446.9600  498035.500000  1046321.919417
    6451.0830  500827.590000  1061623.702718
    6455.2240  502422.690000  1074769.476768
    6459.3830  504631.780000  1089475.225507
    6463.5620  506742.840000  1103643.939201
    6467.7610  508544.910000  1117730.791697
    6471.9830  510417.970000  1131858.486577
    6476.2180  513613.000000  1149146.145701
    6480.4770  515323.030000  1163255.881434
    6484.7510  517584.060000  1178828.522434
    6489.0470  519132.090000  1192839.238999
    6493.3630  521472.090000  1208680.870597
    6497.6980  523808.090000  1224824.535975
    6502.0500  525876.120000  1240268.133221
    6506.4220  528057.060000  1256255.620779
    6510.8160  530399.060000  1273041.205214
    6515.2290  531900.000000  1287883.821308
    6519.6600  534683.000000  1306234.367164
    6524.1070  537081.940000  1323696.884812
    6528.5810  538262.870000  1338351.546927
    6533.0690  541043.810000  1357243.054222
    6537.5760  542625.750000  1373593.470203
    6542.1030  544766.620000  1391492.905875
    6546.6480  547038.560000  1409858.316454
    6551.2140  548797.440000  1427298.836811
    6555.8010  551352.310000  1447193.302129
    6560.4060  553394.190000  1465906.745012
    6565.0290  555750.060000  1485962.160278
    6569.6720  558033.940000  1505781.459934
    6574.3340  559568.750000  1523996.436170
    6579.0180  562004.620000  1544891.670204
    6583.7180  564157.440000  1565186.650690
    6588.4380  566386.250000  1585898.283185
    6593.1790  568941.060000  1607749.804673
    6597.9370  569892.870000  1625530.325695
    6602.7150  572727.690000  1648587.876691
    6607.5150  574454.500000  1669071.720452
    6612.3320  576854.250000  1691492.636452
    6617.1680  578578.000000  1712342.112842
    6622.0220  580399.810000  1733771.190058
    6626.8960  582735.560000  1756867.194017
    6631.7920  584829.310000  1779657.175813
    6636.7060  586636.000000  1801396.588009
    6641.6390  589447.750000  1826577.144547
    6646.5910  590607.440000  1847230.125397
    6651.5620  593144.190000  1872048.421516
    6656.5510  595113.870000  1895450.396229
    6661.5640  596855.560000  1918517.710492
    6666.5920  598885.250000  1942587.275066
    6671.6400  601141.940000  1967767.793800
    6676.7100  602831.560000  1991496.850313
    6681.7950  604144.250000  2014416.781299
    6686.9010  606026.870000  2039249.903828
    6692.0300  607689.500000  2063814.112412
    6697.1750  608744.120000  2086660.072365
    6702.3380  610088.750000  2110762.294813
    6707.5220  608452.370000  2124193.829274
    6712.7270  592155.000000  2085307.123738
    6717.9460  612209.560000  2185309.275143
    6723.1900  628179.120000  2253120.332108
    6728.4500  628443.750000  2278112.493177
    6733.7300  627084.310000  2294997.417687
    6739.0300  619992.870000  2289667.702574
    6744.3500  633235.370000  2361591.855254
    6749.6870  628414.940000  2366240.483532
    6755.0440  644239.440000  2448503.886025
    6760.4220  638093.000000  2448333.922909
    6765.8160  633378.500000  2450109.973644
    6771.2360  643649.000000  2517227.928016
    6776.6670  642197.500000  2535453.736534
    6782.1240  635846.000000  2534504.404313
    6787.5980  621859.440000  2502291.238409
    6793.0880  657596.940000  2664546.599074
    6798.6000  663167.370000  2719377.850699
    6804.1330  661141.810000  2736117.860327
    6809.6830  661977.250000  2765457.025440
    6815.2540  662371.690000  2793500.823334
    6820.8420  664753.120000  2830038.864568
    6826.4480  665960.560000  2862399.246654
    6832.0760  667215.940000  2895053.128483
    6837.7260  669794.370000  2933738.287512
    6843.3930  670285.750000  2963941.098745
    6849.0770  672501.120000  3002026.311771
    6854.7840  674291.500000  3038941.399769
    6860.5080  676630.870000  3078602.011295
    6866.2500  678424.190000  3116325.122579

