# XDI/1.0
# Column.1: energy eV
# Column.2: i0
# Column.3: itrans
# Beamline.name: SSRL 4-1
# Detector.I0: N2 15cm
# Detector.I1: N2 30cm
# Detector.I2: N2 15cm
# Element.edge: K
# Element.symbol: Cr
# Mono.d_spacing: 3.13550
# Mono.name: Si(111)
# Mono.notes: unfocused, detuned 30%,counter clockwise at E=6200eV
# Sample.formula: Cr2S3
# Sample.name: Cr2S3 chromium sesquisulfide
# Sample.prep: powder, mixed 1:50 with B(OH)3 by wt
# Sample.reference: none
# Sample.temperature: room temperature
# Scan.start_time: 1997-01-20 15:45:55
# ///
#    Note: mono d_spacing is nominal!
#     exafs to K15
#     381  E XMU I0
#-------------
#   energy   i0   itrans
    5788.9990  250852.410000  145239.595024
    5799.6250  251431.410000  150179.602626
    5810.2500  251743.410000  155091.591375
    5820.8750  252205.410000  160300.595502
    5831.4990  252930.410000  165792.597013
    5842.1250  253088.410000  171122.602678
    5852.7490  253224.410000  176518.589121
    5863.3740  253885.410000  182459.589935
    5874.0000  253977.410000  188061.591973
    5884.6250  254529.410000  194217.601800
    5895.2500  254604.410000  200184.593277
    5905.8750  255310.410000  206819.596540
    5916.5000  255548.410000  213196.603970
    5927.1240  256042.410000  219927.598579
    5937.7490  255648.410000  226104.595028
    5948.3750  256159.410000  233176.597577
    5959.0020  256204.410000  239908.598790
    5959.7580  256558.410000  240744.596982
    5960.5160  256402.410000  241094.596815
    5961.2730  256465.410000  241644.597594
    5962.0310  256301.410000  241891.598258
    5962.7890  256408.410000  242531.598461
    5963.5440  256450.410000  243067.597237
    5964.3030  256527.410000  243615.596907
    5965.0620  256430.410000  243999.598978
    5965.8170  256425.410000  244491.597703
    5966.5760  256555.410000  245105.596711
    5967.3330  256088.410000  245138.597928
    5968.0920  256422.410000  245973.597693
    5968.8480  256274.410000  246235.598342
    5969.6050  256507.410000  246948.598833
    5970.3650  256430.410000  247408.597745
    5971.1200  256472.410000  247893.598420
    5971.8800  255808.410000  247683.597690
    5972.6380  254982.410000  247326.598016
    5973.3920  254092.410000  246960.597534
    5974.1500  254100.410000  247642.599048
    5974.9090  254227.410000  248430.597651
    5975.6670  254193.410000  248831.597886
    5976.4230  253979.410000  248788.597726
    5977.1820  254901.410000  250033.598529
    5977.9410  255757.410000  251435.598715
    5978.6970  256223.410000  252355.598807
    5979.4530  256237.410000  252791.598399
    5980.2100  256513.410000  253529.598085
    5980.9700  256719.410000  254231.597961
    5981.7280  256792.410000  254707.597896
    5982.4850  256697.410000  255029.598055
    5983.2420  255904.410000  254689.598093
    5984.0000  253285.410000  252593.597871
    5984.7570  243286.410000  243150.598007
    5985.5160  233728.410000  233626.597998
    5986.2740  242184.410000  242048.597995
    5987.0300  250536.410000  250414.598004
    5987.7890  253028.410000  252890.597994
    5988.5440  254554.410000  253115.597854
    5989.3040  255160.410000  251452.598394
    5990.0600  255415.410000  249207.598620
    5990.8200  255684.410000  247607.598897
    5991.5760  255906.410000  247009.597389
    5992.3330  256182.410000  247180.599077
    5993.0900  255785.410000  246054.597108
    5993.8480  254979.410000  242306.597671
    5994.6050  253430.410000  233281.597917
    5995.3630  251982.410000  219047.605627
    5996.1220  251378.410000  204200.593745
    5996.8790  252310.410000  193158.600405
    5997.6350  253832.410000  186291.592190
    5998.3940  255517.410000  183652.603433
    5999.1530  255791.410000  183765.595444
    5999.9090  255821.410000  186414.592260
    6000.6670  256247.410000  190320.600858
    6001.4240  256451.410000  193417.605800
    6002.1810  256193.410000  194499.592325
    6002.9400  255857.410000  193326.602017
    6003.6970  256207.410000  191282.599247
    6004.4550  256250.410000  188949.603329
    6005.2120  256275.410000  186951.604989
    6005.9700  256339.410000  185333.589295
    6006.7270  256150.410000  183915.591592
    6007.4860  256424.410000  183087.599358
    6008.2400  256229.410000  181891.594683
    6009.0000  256463.410000  181003.596885
    6009.0120  256361.390000  180881.591880
    6009.0390  256278.370000  180768.559546
    6009.0860  256049.360000  180539.526719
    6009.1550  256196.330000  180563.490639
    6009.2400  256210.280000  180480.405223
    6009.3480  256484.230000  180553.328202
    6009.4720  256614.190000  180480.231451
    6009.6160  256907.110000  180497.130452
    6009.7820  256498.050000  180060.978370
    6009.9660  256793.950000  180132.846061
    6010.1670  257475.860000  180429.689158
    6010.3900  257203.770000  180065.513779
    6010.6310  257391.640000  180149.329629
    6010.8930  257524.530000  180212.115709
    6011.1700  257712.410000  180363.917411
    6011.4710  258224.270000  180858.683269
    6011.7910  258130.110000  181026.433154
    6012.1290  258599.950000  181648.167946
    6012.4840  258396.800000  181791.893026
    6012.8610  258860.620000  182528.599463
    6013.2550  259141.440000  183130.280166
    6013.6710  259497.250000  183777.962842
    6014.1050  259310.050000  184055.630206
    6014.5610  259890.840000  184850.279368
    6015.0350  260102.620000  185312.899582
    6015.5270  260366.390000  185642.527872
    6016.0370  260760.160000  186049.126098
    6016.5680  261141.910000  186458.720361
    6017.1170  261471.660000  186826.280326
    6017.6880  261734.390000  187206.841699
    6018.2760  261933.120000  187626.391065
    6018.8830  262299.840000  188245.898116
    6019.5120  262886.560000  189068.429113
    6020.1580  263156.250000  189681.919661
    6020.8260  263689.940000  190534.416677
    6021.5090  264077.620000  191360.861949
    6022.2140  264570.310000  192333.325725
    6022.9400  264956.970000  193412.755619
    6023.6850  265498.620000  194741.169880
    6024.4440  265798.280000  196049.597410
    6025.2270  266358.910000  197771.986747
    6026.0270  266587.560000  199338.352552
    6026.8520  267547.160000  201374.719760
    6027.6900  267566.780000  202699.052700
    6028.5480  268164.370000  204499.394255
    6029.4270  268821.970000  206416.720178
    6030.3240  269313.560000  208602.004395
    6031.2400  269785.160000  210892.291971
    6032.1780  270547.720000  213501.572243
    6033.1350  271313.280000  216088.828882
    6034.1090  271617.810000  217934.066089
    6035.1020  272262.370000  219839.293859
    6036.1160  272971.910000  221322.518213
    6037.1470  273660.440000  222479.701401
    6038.2020  274472.940000  223554.890025
    6039.2730  274873.440000  224006.052942
    6040.3620  275497.940000  224485.215830
    6041.4730  275804.440000  224705.344477
    6042.6040  276858.910000  225670.467377
    6043.7520  277548.370000  226377.559886
    6044.9190  278283.840000  227061.657607
    6046.1080  278755.280000  227340.743412
    6047.3130  279566.750000  227676.800905
    6048.5400  280706.160000  228147.837351
    6049.7860  281097.590000  228157.870636
    6051.0500  281966.000000  228715.894119
    6052.3330  282728.440000  229308.890390
    6053.6350  283528.810000  229960.864611
    6054.9590  284296.220000  230466.847338
    6056.3000  284753.590000  230599.815973
    6057.6630  285233.970000  230683.742144
    6059.0440  285799.340000  231035.679704
    6060.4440  286476.690000  231694.587586
    6061.8600  287388.030000  232846.473299
    6063.2990  287973.370000  233909.364840
    6064.7570  288767.690000  235470.237171
    6066.2340  289857.000000  237468.076076
    6067.7290  290475.310000  239083.910742
    6069.2450  291713.620000  241178.727758
    6070.7830  292458.910000  242755.551999
    6072.3360  293503.190000  244807.333680
    6073.9100  294517.470000  247462.120600
    6075.5020  295592.750000  250843.882208
    6077.1140  296637.000000  254526.630509
    6078.7450  297220.250000  258112.347731
    6080.3960  298151.500000  261894.053646
    6082.0660  299180.720000  265494.786916
    6083.7560  300259.940000  268917.452951
    6085.4650  301273.160000  272102.126668
    6087.1910  302175.340000  275026.777298
    6088.9400  303431.560000  278001.403600
    6090.7050  304661.720000  280721.031663
    6092.4890  305814.910000  283117.659634
    6094.2960  306782.060000  285043.247168
    6096.1210  307813.250000  286967.844069
    6097.9650  308717.370000  288732.400159
    6099.8260  310036.530000  290862.936973
    6101.7090  310867.660000  292541.504130
    6103.6130  312211.780000  294648.997693
    6105.5330  313295.910000  296288.503402
    6107.4740  314193.000000  297440.000832
    6109.4310  315213.090000  298446.463894
    6111.4120  316571.190000  299787.939149
    6113.4090  317816.280000  301142.375125
    6115.4260  318880.340000  302659.809154
    6117.4640  320464.410000  304852.223157
    6119.5190  321190.440000  306576.626260
    6121.5970  322380.500000  309144.030040
    6123.6930  323498.530000  312041.374589
    6125.8050  324918.560000  315546.746154
    6127.9380  326133.560000  319071.090030
    6130.0910  327295.560000  322604.403581
    6132.2610  328406.560000  325925.715885
    6134.4530  329841.560000  329666.028004
    6136.6640  331321.530000  333379.311937
    6138.8930  332840.530000  337371.560496
    6141.1430  334668.470000  341889.812684
    6143.4140  335449.440000  345508.064548
    6145.7010  336824.370000  349552.277072
    6148.0070  338152.310000  353496.465000
    6150.3330  339361.250000  357249.656113
    6152.6800  340522.160000  360960.846584
    6155.0450  342550.060000  365515.997706
    6157.4280  343731.970000  369195.157629
    6159.8320  345230.870000  373135.275065
    6162.2560  346363.750000  376718.405525
    6164.6990  347311.620000  380145.493585
    6167.1600  349556.500000  385037.563909
    6169.6410  350585.340000  388820.639993
    6172.1410  352189.190000  393649.729630
    6174.6590  353733.030000  398691.755642
    6177.1980  355169.840000  403496.776005
    6179.7550  356144.690000  407370.781127
    6182.3340  357932.500000  411654.794677
    6184.9310  359058.280000  414726.768875
    6187.5470  360533.090000  418233.731156
    6190.1840  362365.870000  422049.663035
    6192.8400  363824.660000  425697.605636
    6195.5100  365176.410000  429261.526425
    6198.2050  366763.190000  433516.423333
    6200.9160  368229.940000  437669.333974
    6203.6480  369348.660000  441647.201176
    6206.4010  371252.410000  446843.080068
    6209.1700  372819.120000  451634.881474
    6211.9590  374622.840000  456868.708578
    6214.7710  376221.530000  462260.527937
    6217.5970  377680.250000  467581.347142
    6220.4460  379266.910000  473242.151284
    6223.3130  380957.590000  479293.889170
    6226.2000  382429.280000  485093.641367
    6229.1050  384137.940000  491356.388587
    6232.0310  386363.590000  498201.129068
    6234.9740  385590.220000  501225.850719
    6237.9380  387162.840000  507344.509994
    6240.9200  391155.470000  516734.241368
    6243.9220  384359.090000  511654.885412
    6246.9440  393577.720000  528041.488796
    6249.9840  395698.310000  535390.120025
    6253.0440  397398.910000  542267.752243
    6256.1250  399089.470000  549079.383361
    6259.2240  400902.030000  555812.931357
    6262.3390  402459.590000  562198.558426
    6265.4780  404423.160000  568988.120206
    6268.6340  405726.720000  574705.611400
    6271.8120  407685.250000  581323.168697
    6275.0070  409197.780000  587125.683705
    6278.2220  411204.280000  593603.164368
    6281.4540  413026.780000  600019.667277
    6284.7090  414930.280000  606870.125036
    6287.9810  416675.780000  613845.650742
    6291.2720  418861.280000  621671.048008
    6294.5840  420446.750000  628654.446706
    6297.9140  422660.220000  636658.874853
    6301.2630  423973.660000  643340.241117
    6304.6330  425545.120000  650576.623259
    6308.0210  427924.560000  659363.989650
    6311.4290  429209.970000  666879.346502
    6314.8540  431372.410000  675669.720389
    6318.3020  432867.810000  683658.000087
    6321.7650  434485.220000  691978.321639
    6325.2520  436987.590000  701923.621288
    6328.7570  438922.000000  710968.852446
    6332.2790  440160.370000  719146.101304
    6335.8220  442351.720000  728876.357679
    6339.3830  444500.090000  738437.640338
    6342.9650  445713.440000  746400.809678
    6346.5640  447783.780000  756137.003999
    6350.1860  449804.120000  765654.174985
    6353.8250  451800.440000  775538.384554
    6357.4850  453511.750000  785087.580293
    6361.1630  456030.060000  796288.715817
    6364.8590  457357.340000  805611.817874
    6368.5740  459865.620000  816985.965294
    6372.3100  461633.910000  827108.988698
    6376.0670  464114.190000  838347.104933
    6379.8400  465498.440000  847796.088733
    6383.6340  467341.690000  858010.176692
    6387.4470  469022.940000  868067.242372
    6391.2790  471367.160000  879228.240496
    6395.1320  472694.370000  888665.258447
    6399.0030  475059.590000  900339.260853
    6402.8920  477396.810000  911975.140843
    6406.8010  479228.000000  922890.207659
    6410.7320  481272.190000  934435.116866
    6414.6800  483185.370000  946023.082485
    6418.6460  485421.560000  958390.973755
    6422.6340  487373.720000  970426.844891
    6426.6390  489220.870000  982833.733955
    6430.6670  490864.000000  994997.578695
    6434.7080  492959.160000  1008148.471415
    6438.7740  494934.280000  1021407.325368
    6442.8590  496901.370000  1034503.164036
    6446.9600  498876.500000  1047914.911355
    6451.0830  501620.590000  1063328.792920
    6455.2240  503526.690000  1077086.532386
    6459.3830  505621.780000  1091379.225054
    6463.5620  507701.840000  1105871.008164
    6467.7610  510434.910000  1121688.734123
    6471.9830  511613.970000  1134431.446053
    6476.2180  514008.000000  1149862.132671
    6480.4770  515883.030000  1164472.826027
    6484.7510  517212.060000  1177853.466244
    6489.0470  519689.090000  1193945.238399
    6493.3630  521841.090000  1209448.822540
    6497.6980  523602.090000  1224318.480390
    6502.0500  525841.120000  1240097.164353
    6506.4220  527869.060000  1255857.594628
    6510.8160  529121.060000  1269831.194063
    6515.2290  532154.000000  1288551.916056
    6519.6600  533808.000000  1303946.382263
    6524.1070  535885.940000  1320676.837593
    6528.5810  537883.870000  1337373.482594
    6533.0690  541624.810000  1358794.011751
    6537.5760  542630.750000  1373459.433816
    6542.1030  544982.620000  1391863.818048
    6546.6480  545522.560000  1405953.305548
    6551.2140  548809.440000  1427394.848370
    6555.8010  550763.310000  1445638.183365
    6560.4060  552654.190000  1464043.740375
    6565.0290  554541.060000  1482667.119591
    6569.6720  556571.940000  1501971.465686
    6574.3340  558651.750000  1521567.437727
    6579.0180  561183.620000  1542711.961107
    6583.7180  563426.440000  1563075.734307
    6588.4380  565609.250000  1583725.827610
    6593.1790  567269.060000  1603034.578992
    6597.9370  570091.870000  1625854.045689
    6602.7150  571898.690000  1646241.122211
    6607.5150  573816.500000  1667176.337996
    6612.3320  575573.250000  1687901.804354
    6617.1680  577610.000000  1709513.148445
    6622.0220  579800.810000  1732103.099325
    6626.8960  582177.560000  1755104.164470
    6631.7920  583437.310000  1775330.724259
    6636.7060  586479.000000  1800903.679062
    6641.6390  588353.750000  1823351.158143
    6646.5910  589734.440000  1844468.305937
    6651.5620  592485.190000  1870060.153384
    6656.5510  594200.870000  1892629.530670
    6661.5640  596152.560000  1916334.656579
    6666.5920  598210.250000  1940467.652091
    6671.6400  599444.940000  1962216.787316
    6676.7100  602100.560000  1989171.450625
    6681.7950  603256.250000  2011612.795226
    6686.9010  604774.870000  2035275.100124
    6692.0300  606675.500000  2060782.515889
    6697.1750  607526.120000  2082591.207447
    6702.3380  608437.750000  2105351.270318
    6707.5220  606248.370000  2116696.195155
    6712.7270  590845.000000  2081143.363511
    6717.9460  610929.560000  2180668.294927
    6723.1900  627061.120000  2249713.189963
    6728.4500  626761.750000  2272235.628907
    6733.7300  626588.310000  2293429.838474
    6739.0300  617425.870000  2280618.626853
    6744.3500  631589.370000  2355834.867141
    6749.6870  626377.940000  2359301.611615
    6755.0440  641891.440000  2440333.996713
    6760.4220  636740.000000  2443865.800453
    6765.8160  633807.500000  2452475.693720
    6771.2360  642039.000000  2511403.525892
    6776.6670  641332.500000  2532661.596529
    6782.1240  632929.000000  2523462.515644
    6787.5980  619951.440000  2494800.767748
    6793.0880  656212.940000  2660005.155496
    6798.6000  661415.370000  2712475.698859
    6804.1330  659304.810000  2729170.406811
    6809.6830  659781.250000  2756842.661575
    6815.2540  661287.690000  2789258.251128
    6820.8420  662691.120000  2821847.240423
    6826.4480  663800.560000  2853802.923482
    6832.0760  665136.940000  2886693.314706
    6837.7260  666873.370000  2921633.561828
    6843.3930  668693.750000  2957602.291847
    6849.0770  670005.120000  2991679.918159
    6854.7840  671521.500000  3026869.007289
    6860.5080  673997.870000  3067146.564868
    6866.2500  675493.190000  3103562.970885

