# XDI/1.0
# Column.1: energy eV
# Column.2: i0
# Column.3: itrans
# Column.4: irefer
# Beamline.name: SSRL 2-3
# Beamline.notes: vert slits = 0.6mm
# Detector.I0: N2 15cm
# Detector.I1: N2 30cm
# Detector.I2: N2 15cm
# Element.edge: K
# Element.symbol: Cr
# Mono.d_spacing: 3.13550
# Mono.name: Si(111)
# Mono.notes: unfocused, detuned 75%, clockwise at E=5990eV
# Sample.formula: K2CrO4
# Sample.name: K2CrO4
# Sample.prep: powder on tape (4 layers)
# Sample.reference: Cr foil
# Sample.temperature: 15K
# Scan.start_time: 1997-04-18 11:01:58
# ///
#    Note: mono d_spacing is nominal!
#     exafs to K16
#     396  E XMU XMUR I0
#-------------
#   energy   i0   itrans  irefer
    5759.9890  170961.800000  3339.700525   427.300033
    5769.9800  170276.800000  3406.700911   438.300009
    5780.0070  169658.800000  3477.700715   449.299921
    5790.0030  168944.800000  3542.699596   459.299872
    5799.9650  168302.800000  3614.699542   473.299801
    5810.0340  167573.800000  3683.700624   484.300281
    5820.0000  166850.800000  3751.699735   495.299821
    5830.0020  166221.800000  3826.700873   509.300044
    5839.9710  165710.800000  3904.700565   523.300244
    5849.9750  165032.800000  3978.700435   535.300098
    5860.0160  164379.800000  4052.701128   550.300165
    5870.0220  163703.800000  4128.700454   564.299973
    5879.9930  163054.800000  4207.700675   578.299916
    5890.0000  162204.800000  4278.702179   590.300077
    5899.9710  161513.800000  4355.701114   604.300063
    5909.9780  160935.800000  4437.701347   620.300356
    5920.0210  160153.800000  4515.701761   634.300542
    5930.0260  159348.800000  4589.699301   648.300154
    5939.9950  158560.800000  4663.699960   663.300012
    5949.9990  157916.800000  4744.700505   678.299948
    5959.9650  157193.800000  4821.699402   693.299939
    5969.9670  156236.800000  4886.697928   705.299887
    5970.4870  156175.800000  4890.699283   705.300233
    5971.0060  155963.800000  4891.700184   707.300215
    5971.5260  155722.800000  4888.700411   706.299792
    5971.9720  155027.800000  4868.702408   703.300135
    5972.4920  153713.800000  4831.700286   697.299984
    5973.0120  153421.800000  4825.700912   696.300465
    5973.5320  154757.800000  4870.698296   703.300035
    5973.9780  155918.800000  4911.701203   710.300158
    5974.4980  156255.800000  4927.700297   713.299713
    5975.0190  156135.800000  4927.698983   714.299556
    5975.4640  156323.800000  4939.699489   715.299815
    5975.9850  156290.800000  4944.700389   714.299722
    5976.5060  156213.800000  4945.700344   716.299848
    5977.0260  156094.800000  4944.701083   714.299823
    5977.4730  156145.800000  4951.701160   715.300308
    5977.9940  156080.800000  4951.699356   716.300020
    5978.5150  156115.800000  4955.698069   716.299459
    5979.0370  156024.800000  4962.700107   718.299956
    5979.4830  156037.800000  4964.702050   717.300288
    5980.0050  156112.800000  4973.698970   719.299701
    5980.5260  156160.800000  4977.701536   719.300006
    5980.9730  155973.800000  4976.700118   718.300010
    5981.4950  155833.800000  4976.700169   719.299868
    5982.0160  155961.800000  4983.702584   721.300177
    5982.4630  156072.800000  4990.701919   722.300202
    5982.9860  156069.800000  4994.699964   723.299673
    5983.5070  156000.800000  4995.697967   722.299891
    5984.0300  156086.800000  5000.701801   723.300338
    5984.4770  156210.800000  5007.698244   726.299639
    5984.9990  156189.800000  5013.698841   727.300121
    5985.5210  155990.800000  5010.702031   725.299962
    5985.9700  155268.800000  4990.698143   722.299655
    5986.4920  152731.800000  4913.701080   712.300392
    5987.0150  147317.800000  4736.702213   687.300384
    5987.4630  139797.800000  4496.701342   651.300004
    5987.9860  136917.800000  4402.698929   639.300126
    5988.5090  142923.800000  4594.700716   664.300030
    5989.0320  147413.800000  4742.700021   682.300296
    5989.4800  149907.800000  4817.699049   691.299886
    5990.0030  151700.800000  4869.699154   691.299693
    5990.5260  152537.800000  4884.697866   679.299903
    5990.9750  153055.800000  4887.698610   662.300142
    5991.4990  153221.800000  4867.699993   640.300005
    5992.0210  153338.800000  4827.698497   621.300046
    5992.4710  153398.800000  4766.699164   604.299747
    5992.9950  153653.800000  4643.697945   579.299896
    5993.5180  153615.800000  4399.701422   541.300165
    5993.9670  153578.800000  4037.698253   492.299893
    5994.4920  153451.800000  3317.699136   401.299805
    5995.0160  153592.800000  2603.701131   312.299987
    5995.4650  153661.800000  2561.699956   307.299967
    5995.9890  153563.800000  3211.699113   379.299980
    5996.5140  153515.800000  3959.700905   466.300265
    5996.9630  153385.800000  4330.700539   509.300184
    5997.4880  153564.800000  4556.699774   534.300229
    5998.0120  153454.800000  4664.697843   546.299489
    5998.5380  153232.800000  4708.702223   547.300282
    5998.9870  153162.800000  4721.702378   542.300181
    5999.5130  153137.800000  4709.699802   532.300111
    6000.0370  153020.800000  4670.699563   517.300084
    6000.4870  152847.800000  4616.702266   502.300193
    6001.0130  152212.800000  4514.699107   481.300021
    6001.4620  151686.800000  4427.698259   463.299701
    6001.9880  150622.800000  4325.698795   444.299986
    6002.5130  150614.800000  4275.698941   431.299983
    6002.9640  151597.800000  4290.700307   427.299956
    6003.4900  152840.800000  4338.700402   427.299912
    6004.0160  153189.800000  4375.700737   425.300065
    6004.4660  153212.800000  4388.698899   423.299973
    6004.9930  152982.800000  4386.701144   417.300162
    6005.5180  152782.800000  4368.699226   411.299880
    6005.9700  152856.800000  4335.702002   405.300114
    6006.4960  152764.800000  4265.700809   395.299918
    6007.0220  152708.800000  4183.699236   383.300056
    6007.4730  152637.800000  4094.701392   375.300138
    6008.0000  152457.800000  3954.700362   357.300125
    6008.5260  152607.800000  3752.698689   337.299922
    6008.9780  152592.800000  3539.699851   314.300085
    6009.5040  152422.800000  3281.698876   289.299799
    6010.0320  152327.800000  3055.700241   265.299946
    6010.9360  152305.560000  2803.458311   241.064141
    6011.8390  152338.840000  2675.727351   229.358098
    6012.8180  152232.640000  2643.510787   232.180981
    6013.7980  152108.950000  2650.809435   237.534130
    6014.7780  152131.800000  2691.620020   246.415104
    6015.7580  152219.160000  2719.944089   253.825901
    6016.8150  152228.030000  2706.782321   254.764827
    6017.7960  152272.420000  2666.135788   250.233988
    6018.9290  152252.340000  2560.000045   236.232988
    6019.9860  152325.780000  2508.380979   229.760117
    6021.1200  152400.730000  2517.273656   226.817042
    6022.1770  152522.200000  2505.680011   226.402058
    6023.3880  152557.200000  2442.598930   219.517924
    6024.5220  152747.720000  2394.033671   218.162010
    6025.7330  152826.750000  2394.980112   218.334918
    6026.8690  153079.300000  2402.440481   218.038002
    6028.1570  153149.370000  2409.416783   217.270039
    6029.3690  153229.970000  2392.902023   216.030833
    6030.5820  153188.080000  2370.904309   212.320882
    6031.8720  153346.700000  2374.420413   211.141104
    6033.1610  153569.860000  2386.449216   213.489971
    6034.5280  153867.530000  2399.991120   212.367086
    6035.8190  153910.720000  2399.047285   212.774086
    6037.1870  154123.420000  2372.617343   210.711097
    6038.5550  154271.660000  2334.699232   207.175934
    6040.0000  154621.410000  2297.297916   202.171004
    6041.3700  154849.670000  2285.406197   199.694970
    6042.8160  155104.450000  2308.030956   201.747929
    6044.2640  155346.770000  2356.168644   206.330886
    6045.7120  155628.590000  2427.819029   213.441889
    6047.2370  155823.940000  2523.984441   224.082897
    6048.7630  156196.800000  2617.665135   232.252009
    6050.2890  156646.190000  2678.855619   239.952017
    6051.8160  156981.090000  2727.562497   245.180980
    6053.4220  157241.520000  2785.780171   253.938026
    6054.9510  157515.450000  2825.514717   261.225189
    6056.5570  157839.920000  2857.760725   267.041115
    6058.2410  158225.910000  2899.518886   272.385979
    6059.8490  158519.410000  2953.792820   280.259883
    6061.5350  158766.420000  3013.580979   287.664061
    6063.2220  159065.970000  3074.880448   294.596994
    6064.9100  159136.030000  3123.697421   299.059231
    6066.6760  159615.610000  3175.024939   300.050192
    6068.3650  160048.700000  3218.866065   301.570079
    6070.1330  160584.330000  3252.221252   301.621073
    6071.9020  161074.470000  3260.090007   297.199040
    6073.7490  161465.120000  3253.473335   294.306995
    6075.5210  161945.300000  3247.370604   294.944117
    6077.3690  162359.000000  3241.777961   299.111141
    6079.2200  162778.220000  3234.701530   301.807060
    6081.1490  163322.950000  3226.137267   306.030818
    6083.0020  163846.200000  3226.087759   311.786127
    6084.9340  164506.980000  3239.551845   317.068957
    6086.8660  165068.280000  3259.530630   319.881139
    6088.8000  165534.090000  3285.021364   322.223188
    6090.8130  166067.420000  3328.024386   321.093748
    6092.8270  166595.280000  3374.544654   319.494058
    6094.8430  167034.660000  3415.576647   316.422902
    6096.8590  167604.550000  3449.124172   311.882219
    6098.8780  168407.950000  3475.183592   308.870035
    6100.9750  169064.890000  3489.755253   308.387122
    6103.0750  169848.340000  3508.841483   311.432992
    6105.1750  170197.310000  3508.439708   315.007891
    6107.2770  170782.810000  3501.556669   320.112313
    6109.4590  171555.810000  3493.180490   328.745835
    6111.6430  172023.340000  3490.322592   334.908863
    6113.8270  172680.390000  3508.976604   343.600865
    6116.0130  173253.970000  3531.146313   347.821992
    6118.2800  174035.050000  3545.828052   351.573219
    6120.4700  174731.660000  3551.021916   349.852873
    6122.7400  175594.780000  3557.730900   350.662153
    6125.0110  176197.440000  3563.952509   350.999733
    6127.3630  176962.590000  3585.691542   353.868237
    6129.6390  177679.280000  3628.938304   360.263752
    6131.9950  178495.480000  3679.703870   367.190049
    6134.3520  179098.220000  3732.978239   375.645038
    6136.7900  179928.450000  3808.769884   385.628917
    6139.1510  180731.220000  3888.074140   394.143176
    6141.5940  181315.500000  3950.892915   400.185379
    6144.0380  182158.310000  4008.223574   405.756986
    6146.4840  183020.620000  4055.069489   407.858012
    6148.9320  183770.470000  4098.424097   410.487637
    6151.4620  184486.830000  4146.298791   412.648177
    6153.9940  185014.720000  4193.683185   416.336017
    6156.5280  185929.110000  4243.580931   420.553942
    6159.0640  186641.030000  4283.995689   422.301885
    6161.6030  187556.470000  4328.923832   423.578244
    6164.2220  188209.440000  4371.360926   423.382770
    6166.8440  188961.910000  4413.316556   424.718136
    6169.4700  190009.910000  4469.784641   431.581992
    6172.0960  190724.420000  4524.764624   439.974970
    6174.8060  191553.470000  4588.260547   450.897150
    6177.5170  192270.020000  4658.268154   464.349275
    6180.2310  193131.090000  4727.786777   478.328847
    6182.9480  193992.690000  4794.826278   489.838996
    6185.6670  194953.810000  4844.372193   495.878004
    6188.4690  195801.450000  4890.434408   501.446747
    6191.2730  196568.590000  4936.010575   508.543983
    6194.0810  197528.280000  4991.102184   515.170051
    6196.8910  198397.470000  5038.706704   523.327112
    6199.7030  199275.190000  5078.818896   529.011945
    6202.5990  199989.410000  5123.451921   536.227062
    6205.4980  201010.170000  5175.596011   545.969865
    6208.3990  201901.440000  5225.255298   553.243338
    6211.3040  202937.230000  5273.423222   560.043802
    6214.2100  204091.550000  5321.108614   566.375874
    6217.2020  204936.370000  5365.306697   575.235671
    6220.1960  205870.720000  5421.022219   577.625467
    6223.1930  206780.590000  5482.248239   582.544489
    6226.1930  207771.980000  5542.985355   587.992097
    6229.1960  208828.890000  5600.238625   590.970138
    6232.2840  209698.310000  5655.004350   590.476689
    6235.3750  210133.270000  5700.283717   595.511814
    6238.4690  212624.730000  5797.076744   602.075625
    6241.5650  208579.720000  5711.383670   593.170926
    6244.7480  212515.220000  5848.204022   605.793936
    6247.8520  214333.250000  5933.540281   615.946017
    6251.0410  215540.800000  6001.390658   629.628207
    6254.2330  216267.860000  6064.752490   642.839454
    6257.4290  217312.440000  6133.626254   660.578795
    6260.7100  218527.550000  6215.014721   676.847760
    6263.9130  219444.170000  6291.917350   686.646174
    6267.2020  220404.310000  6367.332566   697.974041
    6270.4940  221339.970000  6440.266011   707.831538
    6273.7900  222341.160000  6517.709164   717.217569
    6277.1720  223384.860000  6593.663509   727.132264
    6280.4750  224230.080000  6668.138047   737.577337
    6283.8650  225194.810000  6739.116612   747.550700
    6287.2580  226350.080000  6816.613725   756.052718
    6290.6550  227254.860000  6896.624707   766.085972
    6294.0560  228338.160000  6990.154703   777.646435
    6297.5440  229410.970000  7082.188881   790.736906
    6300.9540  230133.310000  7163.744003   804.356862
    6304.4500  231347.170000  7262.807650   817.505607
    6307.9500  232278.550000  7357.390351   831.185153
    6311.5380  233397.450000  7458.481150   843.392183
    6315.0470  234278.860000  7535.085019   855.128196
    6318.5600  235383.800000  7619.207590   863.394448
    6322.1610  236334.250000  7693.840830   870.188100
    6325.7660  237288.230000  7785.986868   878.513120
    6329.3750  238628.720000  7883.649027   889.366268
    6333.0730  239500.730000  7983.823762   898.748953
    6336.6910  240669.270000  8086.513446   909.660949
    6340.3970  241649.330000  8184.716926   923.102154
    6344.1090  242820.890000  8271.427396   936.071977
    6347.8260  243588.980000  8356.655579   949.570309
    6351.5460  244670.590000  8450.399981   963.599791
    6355.2710  245604.730000  8539.653686   977.157390
    6359.0850  246466.370000  8623.426868   992.243790
    6362.8190  247308.550000  8706.707863  1006.860171
    6366.6450  248376.230000  8796.506491  1023.006308
    6370.4730  249305.450000  8895.814200  1034.680674
    6374.3070  250492.190000  8988.641659  1050.884029
    6378.2300  251399.420000  9092.982744  1063.618729
    6382.0750  252489.200000  9199.834323  1077.880352
    6386.0090  253066.480000  9292.198908  1091.672824
    6389.9480  253991.300000  9392.072801  1104.990806
    6393.8930  255049.620000  9506.465200  1119.841452
    6397.8420  256051.470000  9601.366950  1134.220328
    6401.8820  256935.830000  9700.790383  1146.129215
    6405.8430  257816.720000  9798.721764  1158.565897
    6409.8940  258913.120000  9908.168931  1174.532929
    6413.9500  259838.050000  10019.132873  1187.029007
    6418.0130  260564.480000  10109.598859  1204.052986
    6422.0810  261520.450000  10221.593405  1219.607985
    6426.1530  262476.940000  10338.091014  1237.690608
    6430.3180  263379.940000  10449.108131  1256.304693
    6434.4020  264465.470000  10577.633182  1272.445570
    6438.5790  265068.500000  10694.678520  1289.118025
    6442.7610  265946.060000  10815.231950  1305.317761
    6446.9490  266788.120000  10940.306197  1320.048905
    6451.2300  267856.750000  11070.880941  1341.306746
    6455.4300  268473.840000  11183.980915  1360.094903
    6459.7230  269293.500000  11306.591372  1379.411367
    6463.9340  270228.660000  11437.717988  1402.258975
    6468.2390  271327.340000  11585.345594  1424.632647
    6472.5500  271964.530000  11699.494706  1440.536557
    6476.9550  272972.250000  11838.159168  1460.970793
    6481.2780  273722.500000  11963.338154  1479.934484
    6485.6070  274786.250000  12104.030819  1500.426683
    6490.0310  275256.530000  12225.237948  1520.448716
    6494.4610  275969.310000  12356.962432  1540.000381
    6498.8980  276977.620000  12502.188496  1564.079870
    6503.3410  278201.470000  12653.939169  1583.689994
    6507.7900  278993.810000  12790.191591  1601.826587
    6512.3350  279201.690000  12904.968908  1624.495691
    6516.7970  280041.090000  13042.253323  1647.691706
    6521.3550  280954.000000  13192.057644  1671.417310
    6525.9200  281934.440000  13349.361575  1699.672460
    6530.4920  282732.370000  13495.195877  1721.458267
    6535.0690  283439.840000  13625.538955  1742.771908
    6539.6550  284152.840000  13770.398643  1764.614517
    6544.2470  284671.340000  13895.753944  1781.983949
    6548.9360  285076.370000  14023.634843  1799.885604
    6553.5410  285651.940000  14154.039731  1818.318325
    6558.2440  286191.000000  14296.938452  1842.275367
    6562.9540  286853.590000  14439.361950  1863.765579
    6567.6710  287453.690000  14578.309437  1890.784399
    6572.3950  288355.310000  14737.753033  1918.330804
    6577.2180  288774.470000  14877.723139  1941.407068
    6581.9560  289432.120000  15032.188415  1972.012897
    6586.7920  290072.310000  15184.182131  1995.148007
    6591.5460  290651.030000  15323.695225  2014.812901
    6596.3970  291122.250000  15468.710126  2037.006406
    6601.2570  291757.000000  15623.235543  2066.729206
    6606.1250  292089.250000  15764.276612  2088.978951
    6611.0910  293138.030000  15947.843084  2115.761067
    6615.9730  293722.340000  16105.919888  2145.071530
    6620.9550  294295.190000  16260.491175  2168.909076
    6625.8530  294251.500000  16380.602228  2192.279442
    6630.8500  295363.370000  16576.207118  2223.177238
    6635.8550  295534.750000  16715.332755  2245.603775
    6640.8690  295859.660000  16866.986000  2272.560616
    6645.8910  296527.090000  17042.131135  2302.046662
    6650.9190  296834.030000  17191.793727  2331.060143
    6655.9570  297237.470000  17349.980485  2358.605092
    6661.0960  297507.470000  17508.672575  2388.676230
    6666.1500  298269.970000  17687.886310  2416.279634
    6671.3050  298413.970000  17842.596916  2443.407749
    6676.4690  298656.500000  17996.838139  2469.068820
    6681.6420  298869.560000  18159.579616  2498.259337
    6686.8220  298600.160000  18285.847883  2521.977765
    6692.0110  298255.250000  18409.625696  2543.229331
    6697.3030  296663.840000  18467.910269  2559.002786
    6702.5090  284215.000000  17855.721588  2482.311032
    6707.7240  319355.660000  20204.036342  2812.144623
    6713.0420  307588.810000  19601.867818  2736.511293
    6718.3690  305782.530000  19642.216697  2753.407300
    6723.7050  305280.720000  19772.078125  2777.831943
    6729.0490  304478.470000  19885.431507  2802.781673
    6734.4030  302952.720000  19951.328922  2818.263045
    6739.7660  308529.500000  20477.719937  2897.274486
    6745.1370  304791.780000  20393.635257  2896.814992
    6750.6140  300022.590000  20213.056800  2883.883351
    6756.0030  299415.910000  20373.002351  2912.484830
    6761.4980  306960.780000  21072.460259  3011.610504
    6766.9060  308673.120000  21318.427784  3063.269633
    6772.4200  301477.030000  20989.909611  3021.455979
    6777.9430  309553.440000  21719.896781  3137.171955
    6783.4760  308885.370000  21851.405342  3164.415104
    6789.0180  307824.810000  21962.420253  3193.188101
    6794.5690  306942.780000  22073.953656  3216.492068
    6800.2280  303619.280000  22004.006449  3215.325344
    6805.7990  292209.280000  21383.578291  3132.687486
    6811.4770  320921.810000  23613.639994  3464.576874
    6817.0670  314673.840000  23355.223739  3434.995700
    6822.7650  313515.410000  23460.344169  3458.944600
    6828.4730  312268.500000  23562.946029  3485.422932
    6834.1900  311911.090000  23727.083971  3517.432005
    6839.9180  311988.220000  23931.735676  3553.970505
    6845.6560  311857.870000  24116.892755  3591.035278
    6851.4050  311613.030000  24287.556222  3624.629693
    6857.1630  311537.720000  24481.737279  3664.754772
    6863.0310  311258.910000  24662.431007  3701.407208
    6868.8100  311287.620000  24873.657406  3744.590660
    6874.6980  311355.870000  25092.362941  3784.302291
    6880.4980  311668.620000  25309.618668  3823.543108
    6886.4070  311267.910000  25494.353297  3868.311041
    6892.3270  311305.720000  25714.639288  3909.613233
    6898.2580  311519.030000  25947.400414  3962.441707
    6904.2000  311589.870000  26169.714416  3998.801950
    6910.1520  311505.220000  26368.499467  4041.686663
    6916.1150  311393.090000  26580.824412  4083.102308
    6922.0890  310990.500000  26768.675120  4123.054883
    6928.1750  310633.410000  26960.004985  4161.524489
    6934.1710  310798.840000  27196.869810  4213.530464
    6940.2790  310770.810000  27422.249109  4255.063541
    6946.2960  310945.280000  27675.123695  4307.122071
    6952.4280  310441.280000  27864.536000  4346.716659
    6958.5690  310570.810000  28093.463311  4394.839127
    6964.6200  310540.840000  28308.876777  4436.485117
    6970.7850  310782.370000  28566.819652  4487.666662
    6976.9600  310519.470000  28781.292345  4528.377034
    6983.1470  310569.060000  29015.242406  4582.608109
    6989.3470  310408.160000  29235.744186  4629.380587
    6995.6610  310355.780000  29464.740666  4677.675586
    7001.8820  310107.940000  29676.231239  4724.498560
    7008.1160  310398.620000  29942.274432  4777.858065
    7014.4650  310006.810000  30149.799256  4818.738949
    7020.7220  310008.500000  30388.848530  4873.150834
    7027.0960  309831.750000  30605.428899  4924.094541
    7033.3760  309310.500000  30800.490856  4970.565552
    7039.7740  309415.750000  31053.075141  5023.565004
    7046.1830  309649.560000  31314.185521  5079.095560
    7052.6040  309282.840000  31529.802133  5126.151579
    7059.0390  309513.690000  31802.958619  5177.743397
    7065.4840  309568.030000  32048.579920  5233.859050
    7071.9420  309202.910000  32259.763063  5279.507031
    7078.4130  309095.280000  32503.428591  5343.685476
    7084.8960  308663.190000  32707.607052  5395.388906
    7091.3910  309043.620000  33011.316667  5457.623464
    7097.8990  308876.560000  33256.515902  5514.382697
    7104.5260  308644.030000  33489.253836  5578.676748
    7111.0590  308405.000000  33740.498585  5632.496964

