# XDI/1.0
# Column.1: energy eV
# Column.2: i0
# Column.3: itrans
# Column.4: irefer
# Beamline.name: SSRL 4-1
# Detector.I0: N2 15cm
# Detector.I1: N2 30cm
# Detector.I2: N2 15cm
# Element.edge: K
# Element.symbol: Ni
# Mono.d_spacing: 3.13550
# Mono.name: Si(111)
# Mono.notes: unfocused, detuned 25%,counter clockwise
# Sample.formula: Ni2O3
# Sample.name: Ni2O3
# Sample.prep: powder, mixed 1:100 with B(OH)3 by wt
# Sample.reference: none
# Sample.temperature: room temperature
# Scan.start_time: 1997-01-17 17:59:41
# ///
#    Note: mono d_spacing is nominal!
#     exafs to K17
#     435  E XMU XMUR I0
#-------------
#   energy   i0   itrans  irefer
    8110.0000  298433.590000  193426.583883  535232.926626
    8120.0030  298344.590000  194702.598943  544527.399039
    8130.0020  298652.590000  196268.592592  553925.993176
    8139.9990  298399.590000  197484.597574  562761.319575
    8149.9980  298132.590000  198680.582173  571126.325328
    8160.0000  297784.590000  199849.597825  579474.160667
    8169.9980  297737.590000  201194.585757  588432.091845
    8179.9990  297199.590000  202218.588436  596665.845137
    8190.0020  296570.590000  203188.591040  604687.966828
    8200.0010  296477.590000  204453.595690  613440.352076
    8209.9970  296044.590000  205610.599218  621562.261210
    8220.0010  295813.590000  206843.587650  630124.168250
    8230.0010  295393.590000  207929.581203  638361.329667
    8240.0020  294877.590000  208959.597749  646597.449673
    8250.0010  294639.590000  210185.585433  654822.286569
    8260.0000  294089.590000  211206.588904  662708.184207
    8270.0000  293561.590000  212198.586276  670194.228683
    8280.0020  292021.590000  212421.591244  675345.855312
    8290.0000  291622.590000  213505.600947  683493.445339
    8299.9990  291070.590000  214479.597024  691433.248557
    8310.0000  292072.590000  216395.589876  696090.142660
    8310.4970  292256.590000  216597.598941  697425.187086
    8311.0000  292009.590000  216480.601766  697824.015509
    8311.4980  291875.590000  216435.601348  698328.100145
    8312.0010  291684.590000  216353.587234  698721.367741
    8312.4990  291480.590000  216244.587577  698903.107644
    8313.0030  291583.590000  216382.596916  699756.993641
    8313.5000  291179.590000  216129.599314  699596.139223
    8313.9980  291301.590000  216273.589064  700347.907466
    8314.5020  291393.590000  216423.599554  700952.129805
    8315.0000  291167.590000  216285.590378  700830.255892
    8315.4980  291844.590000  216850.599434  702407.440027
    8316.0020  291521.590000  216655.593984  701855.097027
    8316.5000  291611.590000  216764.594250  702333.909553
    8316.9980  291452.590000  216719.599778  702216.914319
    8317.5030  291908.590000  217106.584402  703254.893191
    8318.0010  291671.590000  216972.599839  702709.148756
    8318.4990  291344.590000  216774.582800  702017.283915
    8318.9980  291253.590000  216766.585331  701808.890343
    8319.5030  290794.590000  216453.586119  700529.264600
    8320.0010  290091.590000  215962.590532  698852.148109
    8320.4990  289712.590000  215745.584208  697779.997032
    8320.9980  288159.590000  214615.586623  694218.296006
    8321.5030  286992.590000  213795.595342  691616.351555
    8322.0020  285213.590000  212500.584336  687354.202649
    8322.5000  283583.590000  211328.591918  683814.190769
    8323.0000  281921.590000  210105.583435  679987.341550
    8323.4990  280696.590000  209230.587883  677334.969138
    8323.9980  279902.590000  208683.583406  675044.861256
    8324.5030  278841.590000  207877.599552  672018.212975
    8325.0020  279380.590000  208274.594334  671623.807912
    8325.5010  280022.590000  208767.601447  671114.443115
    8326.0000  281456.590000  209882.599858  671788.343645
    8326.5000  283452.590000  211419.598683  672875.808299
    8326.9990  285256.590000  212794.580808  673187.767192
    8327.4990  287117.590000  214208.588540  672026.149761
    8327.9980  288687.590000  215360.592992  669257.440459
    8328.4980  290263.590000  216487.593551  664682.339249
    8328.9980  291535.590000  217398.590443  656373.831000
    8329.4970  292209.590000  217778.593112  644577.406768
    8329.9970  292471.590000  217815.600103  626216.296978
    8330.5030  292812.590000  217897.589570  606255.297160
    8331.0030  292365.590000  217334.586575  580354.103018
    8331.4970  292410.590000  217154.600534  554874.157465
    8331.9970  292701.590000  217191.581015  532181.089845
    8332.4970  291993.590000  216465.601431  509472.129742
    8332.9980  291988.590000  216280.597290  489494.108507
    8333.4970  291402.590000  215606.585131  455131.087498
    8333.9980  291243.590000  215259.590192  418009.097254
    8334.4980  291283.590000  214999.591624  383712.098808
    8334.9990  291094.590000  214443.599822  355690.107034
    8335.5000  290586.590000  213558.586352  334077.066427
    8335.9990  290235.590000  212422.596977  313890.083629
    8336.5000  290331.590000  211487.582161  299299.062808
    8337.0010  290156.590000  209969.596732  284372.086042
    8337.5020  289957.590000  208193.590605  271011.097685
    8338.0030  290050.590000  206228.598719  257682.100363
    8338.4970  289686.590000  203293.594891  242360.094608
    8338.9980  289698.590000  200558.592838  228727.088062
    8339.4990  289795.590000  197164.599903  213455.101340
    8340.0000  289566.590000  193598.589240  199719.089719
    8340.5020  290176.590000  189946.597847  185693.097721
    8341.0030  289974.590000  185431.584712  171222.085325
    8341.4980  290155.590000  181272.585631  158156.080446
    8341.9990  290225.590000  176455.587732  143894.086297
    8342.5010  290079.590000  171870.594072  131441.098826
    8343.0030  290383.590000  166578.583840  117555.089802
    8343.4980  290534.590000  161395.591247  105188.096186
    8343.9990  290467.590000  155718.595577  92795.106229
    8344.5010  290625.590000  149895.593205  81090.101970
    8345.0020  290982.590000  144733.589284  71566.102794
    8345.4980  290761.590000  138433.595119  61513.099555
    8346.0000  290675.590000  133086.598691  53857.104937
    8346.5020  291214.590000  128046.594612  47111.098871
    8346.9980  290693.590000  123285.605187  41820.123917
    8347.5000  290757.590000  119306.605449  37759.107163
    8348.0010  290480.590000  115222.605605  34198.095597
    8348.4980  290533.590000  112354.595119  32001.087860
    8349.0000  290506.590000  109857.597734  30356.084072
    8349.5020  290090.590000  108286.604065  29444.097145
    8349.9990  290229.590000  107774.598946  29150.089975
    8350.5010  290072.590000  108292.597731  29338.093821
    8350.9980  290191.590000  109883.603990  29945.098648
    8351.5000  290140.590000  112556.599141  30912.084717
    8352.0020  289955.590000  115346.595922  31801.087055
    8352.4990  289870.590000  118783.603771  32810.099580
    8353.0020  289895.590000  122206.596159  33735.106252
    8353.4990  289782.590000  125332.606082  34355.119682
    8354.0010  289548.590000  128364.596371  34702.114581
    8354.4980  289468.590000  130764.604384  34806.104697
    8355.0010  289658.590000  133457.590550  34759.112004
    8355.4980  289389.590000  135546.593215  34486.103389
    8356.0020  289752.590000  137949.588945  34241.087810
    8356.4980  289657.590000  140129.598956  34019.119379
    8357.0010  289844.590000  142301.590594  33988.107458
    8357.4980  289699.590000  144656.590129  34134.089927
    8358.0020  289600.590000  146769.598171  34482.087896
    8358.4990  289640.590000  148975.596333  35072.119883
    8359.0030  289597.590000  150794.598905  35701.104927
    8359.5000  289311.590000  152193.596772  36421.103510
    8359.9980  289581.590000  153594.588358  37285.092730
    8360.5010  289360.590000  154162.590298  37886.082437
    8360.9990  289519.590000  154525.597638  38597.085295
    8361.5030  289348.590000  154271.595313  39039.097932
    8362.0000  289628.590000  153888.586764  39542.098059
    8362.4980  289484.590000  152880.591029  39918.112405
    8363.0020  289439.590000  151826.588604  40279.111323
    8363.5000  289364.590000  150534.598798  40620.097243
    8363.9980  289466.590000  149514.590664  40970.118523
    8364.5020  289319.590000  148321.590451  41291.093579
    8365.0000  289238.590000  147436.594926  41668.115434
    8365.4980  289486.590000  146996.587864  42090.092258
    8366.0030  289431.590000  146700.598532  42504.109489
    8366.5010  289497.590000  146772.588555  42950.116990
    8367.0000  289602.590000  147130.596486  43312.124348
    8367.4980  289532.590000  147561.592380  43688.096080
    8368.0030  289453.590000  148152.592538  44020.118730
    8368.5010  289345.590000  148770.594736  44305.086366
    8368.9990  289167.590000  149324.593480  44486.083781
    8369.4980  288915.590000  149920.592310  44665.114886
    8369.9970  289375.590000  150760.587259  44837.106367
    8370.8810  289903.590000  152087.592213  44828.075098
    8371.7820  289122.590000  152637.569582  44226.107628
    8372.7080  288958.560000  153514.555529  43446.112925
    8373.6460  289095.560000  154557.530218  42488.072560
    8374.6030  288879.530000  155389.481650  41154.107916
    8375.5840  289132.500000  156244.433214  39736.082760
    8376.5830  288812.470000  156400.384220  38129.081493
    8377.6010  289231.440000  156541.335244  36525.078179
    8378.6370  289352.410000  156104.250579  34945.058011
    8379.6900  289180.340000  155127.166152  33419.053698
    8380.7630  288964.280000  153949.077455  32286.038166
    8381.8540  289394.220000  153045.971203  31734.053324
    8382.9690  289294.160000  151970.865042  31663.032245
    8384.0960  289144.090000  151023.755431  32149.025693
    8385.2480  289585.030000  150474.625281  33281.991909
    8386.4180  289568.940000  149527.482203  34626.981953
    8387.6070  289461.870000  148101.341380  36124.986708
    8388.8130  289495.780000  146246.187888  37537.949955
    8390.0400  289350.690000  143878.027972  38711.933539
    8391.2840  289662.560000  141698.854018  39767.939970
    8392.5470  289848.470000  139713.691678  40559.915225
    8393.8340  289661.370000  137959.498237  41043.896940
    8395.1340  289865.250000  136829.299491  41298.870867
    8396.4590  289792.120000  135886.086889  41259.852731
    8397.7960  289546.000000  135137.891956  41056.849482
    8399.1570  290056.870000  135111.668042  41170.813997
    8400.5370  290268.720000  135558.436715  41529.782258
    8401.9370  290616.590000  136837.191823  42189.772687
    8403.3480  290404.440000  138436.947892  42799.737615
    8404.7840  290555.280000  140460.688264  43273.725558
    8406.2380  290583.120000  142560.413283  43439.704049
    8407.7190  290976.970000  144868.150687  43489.651931
    8409.2110  290835.810000  146946.868274  43327.653544
    8410.7220  291198.620000  149031.572176  43330.604092
    8412.2520  291294.470000  150796.278957  43212.585331
    8413.8070  291488.280000  152609.962099  42887.542500
    8415.3750  291711.090000  154289.652263  42255.507260
    8416.9610  291759.910000  155547.326847  41488.489944
    8418.5720  292358.720000  156783.996793  40693.445752
    8420.1960  291857.500000  157036.658143  39669.406340
    8421.8450  292082.280000  157255.291208  38601.399929
    8423.5070  292336.090000  157072.932160  37334.328314
    8425.1940  292656.870000  156531.556809  35866.317741
    8426.8940  292694.660000  155674.182527  34486.269165
    8428.6190  293013.410000  154967.818981  33252.251393
    8430.3560  293363.190000  154589.404321  32587.200798
    8432.1190  293532.940000  154468.001469  32539.149509
    8433.8960  293681.690000  154550.591179  33135.111605
    8435.6970  294220.440000  154855.168341  34301.060851
    8437.5110  294277.190000  154822.754971  35786.042615
    8439.3510  294671.940000  154876.305569  37525.990381
    8441.2090  294813.690000  154457.858328  39297.947754
    8443.0810  295049.410000  153731.401550  40971.919173
    8444.9720  295586.120000  152895.935925  42414.849824
    8446.8890  295201.840000  151690.464349  43487.825518
    8448.8170  295631.560000  151427.982558  44877.751033
    8450.7720  296547.280000  152088.481421  47099.692206
    8452.7400  296482.970000  152821.990005  49630.659608
    8454.7280  296675.690000  154195.486354  52517.591482
    8456.7400  297086.370000  156097.967136  54910.566856
    8458.7670  297187.060000  158102.439182  56428.489965
    8460.8130  297618.750000  160426.902872  57004.453993
    8462.8770  298064.440000  162594.359118  56609.425790
    8464.9620  298126.090000  163979.811202  55343.339508
    8467.0660  298448.780000  164579.251597  53487.299159
    8469.1890  298600.440000  163879.689606  51243.232404
    8471.3320  299085.090000  162433.114644  49208.201898
    8473.4890  299536.750000  160590.510912  47778.116198
    8475.6720  300078.410000  159016.919288  47191.066574
    8477.8670  300320.060000  158128.306925  47357.006092
    8480.0900  300649.690000  158320.706915  47860.942081
    8482.3250  300891.310000  159334.075728  47904.866829
    8484.5800  301189.940000  160750.455328  46792.839807
    8486.8550  301407.560000  161999.811042  44423.747001
    8489.1490  301860.190000  162859.173833  41507.696304
    8491.4650  302093.810000  162938.511289  38993.614357
    8493.7990  302713.410000  162863.840332  37428.577478
    8496.1460  303344.030000  162712.163863  36650.489120
    8498.5210  304004.620000  162592.504564  36394.443018
    8500.9090  304323.220000  162451.802905  36560.351478
    8503.3170  304294.780000  162461.102296  37358.281079
    8505.7460  305087.370000  163307.380449  39159.231569
    8508.1930  305218.970000  164203.687386  41843.173002
    8510.6620  305654.530000  165665.944330  45622.105885
    8513.1450  306147.090000  167543.224172  50634.004321
    8515.6460  305904.660000  169380.486678  56359.937877
    8518.1700  307008.220000  172206.738400  62802.866823
    8520.7120  307205.750000  174630.972446  68329.795677
    8523.2740  307834.310000  177017.196581  71712.716124
    8525.8590  307871.840000  178541.415244  72099.635766
    8528.4560  308581.370000  179614.640301  70039.563041
    8531.0740  309096.910000  179641.851039  66416.488891
    8533.7120  309521.440000  178696.040156  62388.393891
    8536.3710  309909.970000  177168.212777  58868.352423
    8539.0440  310403.470000  175655.408111  56231.222738
    8541.7370  310983.000000  174456.573517  54677.147771
    8544.4510  311255.500000  173493.740045  54113.057661
    8547.1870  311649.000000  173115.889983  54358.024878
    8549.9350  312140.500000  173309.030939  55037.914757
    8552.7120  312713.000000  174009.176615  56025.841351
    8555.5020  313306.470000  174981.289117  57291.716460
    8558.3070  313638.940000  175925.419376  58835.661060
    8561.1380  314493.440000  177207.527482  60430.595060
    8563.9850  315107.910000  178414.635010  60904.511449
    8566.8520  315182.370000  179201.724475  59716.425925
    8569.7400  315752.810000  180149.788043  57485.322861
    8572.6440  316256.280000  181002.871821  55182.225386
    8575.5660  316823.720000  181983.938080  53634.119901
    8578.5120  317503.160000  183144.996743  52815.049106
    8581.4720  317838.590000  184137.042264  52573.925047
    8584.4520  318560.030000  185283.101633  53180.826885
    8587.4540  318821.470000  185943.133100  54558.738446
    8590.4710  319489.910000  186619.146947  57009.669439
    8593.5080  319905.310000  187133.159392  60259.572882
    8596.5670  320498.720000  188029.164777  64186.447007
    8599.6420  321150.120000  189300.155064  68233.379279
    8602.7360  321557.530000  190656.135945  71713.252999
    8605.8540  322228.940000  192127.129686  74361.154362
    8608.9850  322718.310000  193241.101040  75761.059782
    8612.1390  323264.720000  194108.067730  76238.955121
    8615.3130  323780.090000  194680.012813  76392.853466
    8618.5030  323469.470000  194498.944334  76368.738878
    8621.7150  322819.840000  193910.884778  76278.635819
    8624.9410  324378.220000  194570.833767  76684.544381
    8628.1890  324337.560000  194209.723728  76646.429724
    8631.4540  327188.940000  195632.657090  76945.317113
    8634.7390  328088.280000  196060.545769  76473.212684
    8638.0470  328249.620000  196298.440255  75639.108341
    8641.3700  328788.970000  196959.321268  74974.991884
    8644.7140  329252.310000  197655.191701  74534.876482
    8648.0810  329891.660000  198622.074806  74423.778742
    8651.4570  330643.970000  199923.916595  74623.664630
    8654.8610  331760.280000  201855.775540  75051.546184
    8658.2810  332084.590000  203626.600234  75227.437563
    8661.7170  333066.910000  205665.446139  75379.307479
    8665.1740  333312.220000  206861.264406  75074.229317
    8668.6540  333829.530000  207822.068451  74896.059086
    8672.1500  334449.810000  208498.891248  75298.990133
    8675.6610  335338.120000  209209.687032  76537.822946
    8679.1950  336059.410000  209887.476267  78404.738047
    8682.7510  336358.690000  210515.254898  80691.611271
    8686.3230  336982.940000  211542.030799  83415.488531
    8689.9180  337427.220000  212509.786753  85815.371256
    8693.5230  338047.500000  213374.538479  87468.245433
    8697.1560  339004.750000  214179.279523  88290.120796
    8700.8060  339779.000000  214681.021656  88546.001353
    8704.4710  340283.250000  215024.754567  89037.876604
    8708.1590  340828.500000  215461.473914  90389.753815
    8711.8640  341847.720000  216188.167598  92800.625006
    8715.5850  342132.970000  216472.877545  95184.495170
    8719.3360  342545.190000  217012.572707  96775.367179
    8723.0970  343714.410000  218318.260581  97736.238767
    8726.8800  344320.620000  219487.933466  98444.108249
    8730.6800  344936.840000  220782.582527  99278.976122
    8734.4950  345758.060000  222339.252963  100026.843195
    8738.3420  346390.250000  223998.897427  100655.704758
    8742.1970  347047.470000  225924.544977  101327.573610
    8746.0770  347864.660000  227828.168089  101883.448286
    8749.9730  348718.840000  229355.793553  102246.307466
    8753.8860  349393.030000  230327.417049  102374.171467
    8757.8210  349991.220000  230893.015864  102305.032823
    8761.7740  351035.370000  231630.629254  102450.902889
    8765.7510  351429.530000  232056.205523  102488.757282
    8769.7380  352246.720000  233065.781829  102835.614664
    8773.7540  352742.870000  234080.360634  103293.482160
    8777.7810  353845.030000  235577.924642  104310.335277
    8781.8330  354395.160000  236580.460062  105553.186334
    8785.8950  354807.310000  237529.007624  107317.051726
    8789.9860  355355.440000  238595.566458  109674.910171
    8794.0890  356437.560000  239971.070681  112337.763349
    8798.2160  357340.690000  241092.611664  114599.614504
    8802.3590  357974.810000  241992.109631  116241.464812
    8806.5260  358385.940000  242804.611116  117320.317505
    8810.7050  359293.060000  243892.115664  118238.169824
    8814.9080  360159.160000  244779.607595  119027.034128
    8819.1280  360346.250000  245147.059853  119756.878455
    8823.3720  360411.340000  245638.536191  120890.731274
    8827.6280  355760.440000  243171.992974  121046.562181
    8831.9070  362186.530000  248483.428044  125305.412257
    8836.2050  361312.620000  248757.883243  126842.259966
    8840.5200  359240.690000  248185.316116  127638.124741
    8844.8530  366257.750000  253932.737896  131535.952924
    8849.2100  367096.810000  255455.161409  133406.799205
    8853.5860  367584.870000  256738.570247  135084.638085
    8857.9720  369277.940000  258866.966127  137044.485588
    8862.3840  369063.000000  259669.342279  137997.333316
    8866.8180  370158.030000  261227.721363  139036.171036
    8871.2680  370759.060000  262282.093600  139566.015354
    8875.7380  371776.090000  263597.459389  140133.839792
    8880.2230  372706.120000  264983.809280  140612.689397
    8884.7310  373375.160000  266288.153173  140877.526292
    8889.2580  373764.190000  267382.492791  141066.356132
    8893.8040  374674.190000  268757.805208  141781.199638
    8898.3680  375533.190000  270040.151206  143051.035202
    8902.9500  376542.190000  271271.482370  145010.869169
    8907.5510  376900.190000  271895.745545  147394.697326
    8912.1710  378017.190000  272947.063769  150092.530030
    8916.8080  378663.190000  273867.340184  152466.352023
    8921.4720  379670.160000  275312.599019  154865.186787
    8926.1470  379779.160000  276383.868107  156735.022685
    8930.8480  381384.120000  278750.120824  159264.852629
    8935.5670  381256.090000  279820.381188  160916.693849
    8940.3000  382473.030000  281686.638186  162942.510288
    8945.0570  383144.000000  282942.839770  164610.322289
    8949.8260  384290.970000  284521.095450  166632.151953
    8954.6220  385609.910000  286247.282855  168808.977099
    8959.4300  386360.840000  287713.487948  170813.813170
    8964.2640  386713.780000  288981.690906  172837.618588
    8969.1170  387794.720000  290788.886357  175367.457113
    8973.9820  388583.660000  292237.079132  177636.297534
    8978.8740  389246.560000  293447.243391  179596.087869
    8983.7780  390096.470000  294827.419796  181554.914561
    8988.7080  390723.370000  296092.562322  183282.726831
    8993.6510  391662.280000  297606.706458  185040.540304
    8998.6140  392264.190000  298882.842908  186657.365636
    9003.6030  392827.090000  300124.965773  188239.189832
    9008.6040  394144.000000  301989.100227  190164.012743
    9013.6260  394950.870000  303414.172298  191651.798757
    9018.6670  395974.750000  304947.321896  193264.621680
    9023.7280  396736.620000  306245.398007  194938.424096
    9028.8020  397911.500000  307938.478764  197060.249844
    9033.9020  398025.370000  308973.572383  198938.065367
    9039.0230  399327.220000  311071.621862  201579.870206
    9044.1570  399852.060000  312566.681963  203861.660438
    9049.3110  400884.940000  314403.707713  206579.484973
    9054.4850  401503.780000  315823.795231  209132.296233
    9059.6790  402108.620000  317180.797727  211794.094666
    9064.8940  401799.440000  317932.837821  213780.899974
    9070.1200  403674.280000  320277.854755  216867.727100
    9075.3760  404492.090000  321755.834933  219321.520061
    9080.6450  404125.910000  322357.857720  221301.314695
    9085.9340  403925.720000  323313.842366  223637.133739
    9091.2440  406798.530000  326739.804936  227558.910153
    9096.5660  408297.340000  329007.775257  230674.720889
    9101.9100  406331.160000  328417.738865  231891.523721
    9107.2820  409536.940000  332044.735989  236099.330115
    9112.6600  410082.720000  333473.664575  238818.128934
    9118.0660  412462.500000  336400.593562  242626.929134
    9123.4850  412278.280000  337220.546934  244937.740597
    9128.9280  412810.060000  338614.429518  247551.510609
    9134.3890  414127.840000  340570.352129  250399.318713
    9139.8710  415851.590000  342804.235347  253358.084497
    9145.3680  416317.340000  343965.136890  255379.865668
    9150.8870  416842.090000  345288.040614  257539.696407
    9156.4270  418327.840000  347576.898558  260533.468622
    9161.9790  418962.590000  349205.764628  263106.247089
    9167.5550  420221.340000  351400.631364  266300.074469
    9173.1510  420738.060000  352994.457180  269255.826292
    9178.7630  421599.780000  354881.302853  272527.622355
    9184.3950  422112.500000  356393.146704  275463.398838
    9190.0480  423431.220000  358587.962441  278840.209627
    9195.7170  423824.940000  360040.776329  281587.009622
    9201.4060  424502.660000  361746.601887  284589.779136
    9207.1110  425715.340000  363902.402597  288047.560449
    9212.8380  426610.030000  365743.188828  291409.331793
    9218.5870  427230.720000  367332.963843  294724.109046
    9224.3490  428264.410000  369324.767325  298477.927450
    9230.1340  429161.090000  371246.495229  302156.697774
    9235.9420  429631.780000  372776.265861  305502.486059
    9241.7650  428512.440000  372877.992814  307745.231161
    9247.6080  431526.120000  376562.728045  312872.025187
    9253.4680  433075.780000  379006.450315  317062.756475
    9259.3510  432529.440000  379627.190463  319720.569314
    9265.2470  432638.090000  380832.885683  322858.342415
    9271.1660  435361.720000  384341.594352  327957.138907
    9277.1010  436480.370000  386467.316962  331775.920538
    9283.0580  437564.000000  388622.983988  335816.634658
    9289.0300  438342.620000  390486.634488  339489.406079
    9295.0260  438663.250000  391946.336773  342748.223185
    9301.0440  439636.870000  393944.994118  346440.951759
    9307.0770  440305.500000  395717.631113  349976.743162
    9313.1270  441324.090000  397833.272222  353883.514359
    9319.1990  441963.690000  399634.919616  357571.280896
    9325.2870  443388.310000  402134.529196  361993.075206
    9331.3970  444156.910000  404068.157697  365947.814866
    9337.5240  444525.470000  405620.751584  369614.597227
    9343.6740  446259.060000  408450.342126  374548.340753
    9349.8410  446695.660000  410088.939842  378428.095518
    9356.0210  447908.220000  412445.532798  383012.875211
    9362.2270  448105.780000  413854.093528  386807.622757
    9368.4490  449127.340000  416016.650854  391297.400342
    9374.6930  450054.910000  418131.224531  395769.162197
    9380.9540  450234.470000  419561.782470  399613.908215
    9387.2380  451368.000000  421918.311776  404433.653207
    9393.5310  452488.560000  424208.839963  409300.432857
    9399.8560  453126.090000  426048.338770  413762.182813
    9406.1890  454354.620000  428445.869482  418785.930845
    9412.5490  455152.160000  430470.376920  423523.689786
    9418.9230  455793.660000  432407.878979  428278.441841
    9425.3200  456907.190000  434779.347353  433554.191195
    9431.7350  457565.690000  436975.814473  437854.939475
    9438.1670  458537.190000  438948.283427  443500.691408
    9444.6220  459270.720000  440927.750128  448443.438127
    9451.0880  460193.190000  443147.188840  453676.187231

