# XDI/1.0
# Column.1: energy eV
# Column.2: i0
# Column.3: itrans
# Column.4: irefer
# Beamline.name: SSRL 4-1
# Detector.I0: N2 15cm
# Detector.I1: N2 30cm
# Detector.I2: N2 15cm
# Element.edge: K
# Element.symbol: Ni
# Mono.d_spacing: 3.13550
# Mono.name: Si(111)
# Mono.notes: unfocused, detuned 25%,counter clockwise
# Sample.formula: Ni2O3
# Sample.name: Ni2O3
# Sample.prep: powder, mixed 1:100 with B(OH)3 by wt
# Sample.reference: none
# Sample.temperature: room temperature
# Scan.start_time: 1997-01-17 17:59:41
# ///
#    Note: mono d_spacing is nominal!
#     exafs to K17
#     435  E XMU XMUR I0
#-------------
#   energy   i0   itrans  irefer
    8110.0000  296264.590000  191683.589290  532537.884781
    8120.0030  296355.590000  193081.591004  541766.366770
    8130.0020  296819.590000  194725.585413  551205.287940
    8139.9990  296022.590000  195556.583845  559111.976580
    8149.9980  295730.590000  196731.581846  567187.122285
    8160.0000  295584.590000  197998.599306  575507.325180
    8169.9980  295296.590000  199176.594569  583931.009309
    8179.9990  294859.590000  200263.595631  592272.289092
    8190.0020  294759.590000  201607.588112  600884.162645
    8200.0010  294286.590000  202551.583705  608729.250535
    8209.9970  293937.590000  203785.601041  617121.216612
    8220.0010  293382.590000  204775.595847  624934.425581
    8230.0010  293239.590000  206049.594164  633696.978432
    8240.0020  293027.590000  207288.588235  641933.020242
    8250.0010  292533.590000  208307.592552  649837.153020
    8260.0000  292161.590000  209455.590761  657858.419089
    8270.0000  291684.590000  210477.581704  665447.101105
    8280.0020  289378.590000  210155.583625  669107.764965
    8290.0000  289736.590000  211764.582950  678429.928544
    8299.9990  288447.590000  212194.584616  685097.186066
    8310.0000  290067.590000  214558.593619  690792.068637
    8310.4970  290419.590000  214863.585209  692482.757859
    8311.0000  290301.590000  214850.588236  693118.408415
    8311.4980  289940.590000  214643.591774  693209.276522
    8312.0010  289767.590000  214553.599417  693641.036267
    8312.4990  289930.590000  214739.582438  694604.104539
    8313.0030  289491.590000  214465.598704  694395.960797
    8313.5000  289254.590000  214362.591617  694551.931359
    8313.9980  289403.590000  214530.585747  695447.358020
    8314.5020  289242.590000  214464.590989  695535.914047
    8315.0000  288965.590000  214305.596046  695360.916632
    8315.4980  289276.590000  214591.600517  696086.329477
    8316.0020  289419.590000  214750.589021  696611.107898
    8316.5000  289770.590000  215058.598242  697615.813627
    8316.9980  290012.590000  215318.587966  698369.083428
    8317.5030  289761.590000  215168.594526  697902.132365
    8318.0010  289832.590000  215260.598552  698220.796727
    8318.4990  289334.590000  214943.600251  697136.805627
    8318.9980  289278.590000  214941.587039  696967.166679
    8319.5030  288915.590000  214718.586190  695976.064269
    8320.0010  288740.590000  214638.597642  695384.320984
    8320.4990  288011.590000  214132.594236  693543.818536
    8320.9980  286813.590000  213275.592851  690788.841092
    8321.5030  285368.590000  212263.588199  687416.826733
    8322.0020  283764.590000  211093.589227  683758.363845
    8322.5000  282473.590000  210190.583471  680844.990270
    8323.0000  280729.590000  208923.591215  677025.943092
    8323.4990  279146.590000  207763.591926  673685.817458
    8323.9980  277954.590000  206902.600806  670883.268268
    8324.5030  277188.590000  206362.597774  668663.406924
    8325.0020  277238.590000  206391.586809  667491.243069
    8325.5010  277637.590000  206693.584843  666746.177577
    8326.0000  278690.590000  207502.600063  666907.176133
    8326.5000  280325.590000  208755.591509  667573.268000
    8326.9990  282204.590000  210213.589008  668557.966680
    8327.4990  284181.590000  211702.594844  668064.973977
    8327.9980  286109.590000  213137.589922  666699.833071
    8328.4980  287771.590000  214357.584298  663176.769423
    8328.9980  289146.590000  215338.582413  656564.272924
    8329.4970  289891.590000  215780.594557  646916.433056
    8329.9970  290548.590000  216166.582482  631728.886873
    8330.5030  290183.590000  215730.596680  612745.324266
    8331.0030  290761.590000  215926.582275  589844.211088
    8331.4970  290170.590000  215291.600674  564208.120502
    8331.9970  289928.590000  214919.588518  540478.117868
    8332.4970  289880.590000  214699.586634  517358.097374
    8332.9980  289646.590000  214356.587420  498193.085937
    8333.4970  289665.590000  214138.589453  470036.062119
    8333.9980  289250.590000  213609.590587  432898.074197
    8334.4980  289019.590000  213162.582205  395543.065996
    8334.9990  289078.590000  212903.601651  364808.109835
    8335.5000  288793.590000  212230.598327  341334.116541
    8335.9990  288548.590000  211304.600056  319499.112055
    8336.5000  288473.590000  210376.596076  303828.087346
    8337.0010  288358.590000  209052.582202  288539.072428
    8337.5020  287856.590000  207239.598531  274894.092341
    8338.0030  288056.590000  205538.600625  261774.109369
    8338.4970  287685.590000  202797.588862  246629.098464
    8338.9980  287911.590000  200438.597677  233522.108064
    8339.4990  287493.590000  196856.584142  217792.083950
    8340.0000  287773.590000  193846.600097  204676.101127
    8340.5020  288269.590000  190176.600861  190514.100782
    8341.0030  287749.590000  185639.593148  175605.092746
    8341.4980  287875.590000  181554.595049  162504.096005
    8341.9990  288020.590000  176883.596730  148310.102761
    8342.5010  288001.590000  172569.594408  136044.100418
    8343.0030  287950.590000  167264.585490  122071.092804
    8343.4980  288537.590000  162498.597683  109784.106833
    8343.9990  288582.590000  157000.598715  97250.100781
    8344.5010  288699.590000  151233.585667  85196.100713
    8345.0020  288583.590000  145881.592738  75176.101708
    8345.4980  288773.590000  139789.588876  64747.102819
    8346.0000  288906.590000  134449.587933  56614.097004
    8346.5020  289141.590000  129061.598602  49207.098863
    8346.9980  288918.590000  124308.596190  43510.102518
    8347.5000  288802.590000  120069.600057  38968.108277
    8348.0010  288818.590000  115899.597180  35073.093682
    8348.4980  288603.590000  112704.605532  32518.113925
    8349.0000  288576.590000  109910.602115  30571.106392
    8349.5020  288564.590000  108134.599524  29478.103781
    8349.9990  288521.590000  107123.601126  28914.098644
    8350.5010  288181.590000  107076.603864  28829.106014
    8350.9980  288294.590000  108223.598059  29276.098706
    8351.5000  288401.590000  110568.597320  30141.112951
    8352.0020  288045.590000  113090.599869  30950.101117
    8352.4990  288043.590000  116445.601361  32035.101479
    8353.0020  288044.590000  119868.606198  32994.114416
    8353.4990  287905.590000  123037.601744  33705.095034
    8354.0010  287853.590000  126235.597548  34224.096870
    8354.4980  288134.590000  128858.602347  34448.094964
    8355.0010  287878.590000  131441.597666  34422.094107
    8355.4980  287872.590000  133701.591348  34241.090053
    8356.0020  287840.590000  135938.587323  33992.102559
    8356.4980  287688.590000  138085.590015  33684.093077
    8357.0010  287709.590000  140145.588950  33577.117337
    8357.4980  288025.590000  142709.590600  33710.107910
    8358.0020  287678.590000  144692.593916  33920.089517
    8358.4990  287811.590000  147000.584750  34408.084960
    8359.0030  287949.590000  149006.589544  35056.096307
    8359.5000  287647.590000  150521.598427  35744.113028
    8359.9980  287709.590000  151992.595119  36567.095403
    8360.5010  287703.590000  152852.598536  37251.121388
    8360.9990  287685.590000  153318.595886  37925.096981
    8361.5030  287905.590000  153432.589450  38509.089868
    8362.0000  287797.590000  152992.594850  38988.101918
    8362.4980  287756.590000  152181.585483  39393.091141
    8363.0020  287859.590000  151271.589396  39745.110472
    8363.5000  287523.590000  149881.594000  40037.103395
    8363.9980  287614.590000  148858.598908  40362.085021
    8364.5020  287873.590000  147814.596215  40778.083182
    8365.0000  287786.590000  146843.588796  41120.097757
    8365.4980  287654.590000  146085.595443  41480.096927
    8366.0030  287766.590000  145732.594834  41930.119038
    8366.5010  287846.590000  145710.585694  42338.098930
    8367.0000  287918.590000  145955.585506  42734.107273
    8367.4980  287880.590000  146334.584737  43096.107340
    8368.0030  287627.590000  146778.588861  43423.086779
    8368.5010  287829.590000  147546.591964  43805.089253
    8368.9990  287582.590000  148049.590494  44006.101227
    8369.4980  287835.590000  148918.585277  44282.109604
    8369.9970  287827.590000  149523.587311  44383.117251
    8370.8810  287654.590000  150486.596448  44332.100020
    8371.7820  287445.590000  151358.574930  43936.116895
    8372.7080  287999.560000  152610.565399  43345.086518
    8373.6460  287594.560000  153354.526951  42373.086592
    8374.6030  287529.530000  154298.489200  41101.103406
    8375.5840  287769.500000  155197.439953  39717.071683
    8376.5830  288053.470000  155770.399128  38223.064748
    8377.6010  288182.440000  155846.329088  36572.056010
    8378.6370  288215.410000  155429.251211  34924.083119
    8379.6900  287818.340000  154402.173912  33363.073923
    8380.7630  288052.280000  153493.081053  32222.033587
    8381.8540  287674.220000  152136.973926  31453.028031
    8382.9690  288008.160000  151285.868071  31354.042717
    8384.0960  287976.090000  150372.741619  31751.029686
    8385.2480  287792.030000  149488.624738  32673.008249
    8386.4180  288104.940000  148772.484420  34045.987654
    8387.6070  287910.870000  147394.336016  35503.971131
    8388.8130  288206.780000  145759.194694  36987.976805
    8390.0400  287937.690000  143363.032574  38190.931898
    8391.2840  288358.560000  141227.858784  39286.918692
    8392.5470  288461.470000  139162.682180  40090.909954
    8393.8340  288430.370000  137418.498749  40668.913519
    8395.1340  288465.250000  136175.300241  40921.885924
    8396.4590  288504.120000  135238.091611  40903.836746
    8397.7960  288683.000000  134648.893319  40813.813908
    8399.1570  288963.870000  134445.668129  40817.796009
    8400.5370  288853.720000  134637.435256  41089.782959
    8401.9370  289144.590000  135787.189136  41711.750447
    8403.3480  289222.440000  137466.957706  42421.723623
    8404.7840  289319.280000  139440.690533  42893.716788
    8406.2380  289448.120000  141574.414366  43107.693102
    8407.7190  289810.970000  143862.154812  43126.669294
    8409.2110  289611.810000  145901.879866  43015.621485
    8410.7220  290314.620000  148188.576976  43085.591249
    8412.2520  290013.470000  149763.288384  42889.582753
    8413.8070  290097.280000  151515.967435  42575.544472
    8415.3750  290680.090000  153405.649279  42055.522745
    8416.9610  290377.910000  154518.327294  41206.487707
    8418.5720  290548.720000  155559.994367  40390.454127
    8420.1960  291199.500000  156468.654516  39543.435446
    8421.8450  291291.280000  156692.302988  38507.384525
    8423.5070  291545.090000  156541.942380  37264.345192
    8425.1940  291816.870000  156008.555390  35800.320575
    8426.8940  292384.660000  155432.190743  34463.285332
    8428.6190  292077.410000  154368.819333  33128.226054
    8430.3560  292138.190000  153817.409095  32363.208703
    8432.1190  292839.940000  153938.008612  32299.152125
    8433.8960  292514.690000  153765.588111  32759.116430
    8435.6970  292929.440000  153996.174455  33864.076454
    8437.5110  293249.190000  154132.747118  35361.025017
    8439.3510  293556.940000  154152.292155  37014.992151
    8441.2090  293824.690000  153836.861033  38829.943822
    8443.0810  294094.410000  153170.401698  40529.902631
    8444.9720  294317.120000  152177.929564  41968.839467
    8446.8890  294258.840000  151124.467925  43064.792683
    8448.8170  294978.560000  150947.980239  44461.750300
    8450.7720  295203.280000  151194.487353  46494.731438
    8452.7400  295523.970000  152068.982527  49093.677089
    8454.7280  295578.690000  153315.485605  51854.607655
    8456.7400  295967.370000  155168.963726  54358.587880
    8458.7670  295997.060000  157101.441647  55936.533733
    8460.8130  296676.750000  159555.904978  56667.472125
    8462.8770  296970.440000  161663.353013  56336.413666
    8464.9620  297156.090000  163197.815382  55155.366941
    8467.0660  297161.780000  163679.247418  53268.315809
    8469.1890  297931.440000  163446.691765  51166.237614
    8471.3320  298270.090000  162003.107688  49114.166583
    8473.4890  298640.750000  160130.522129  47568.141740
    8475.6720  298831.410000  158344.916291  46878.055596
    8477.8670  299410.060000  157544.313139  47022.009153
    8480.0900  299398.690000  157473.705726  47447.958342
    8482.3250  299899.310000  158547.080170  47631.894291
    8484.5800  300323.940000  160002.460316  46705.839145
    8486.8550  300670.560000  161351.817104  44434.765967
    8489.1490  300933.190000  162170.180373  41535.699235
    8491.4650  301564.810000  162523.507299  39008.620166
    8493.7990  301955.410000  162339.846773  37326.553276
    8496.1460  302467.030000  162119.169629  36488.519607
    8498.5210  303056.620000  161959.491701  36185.419185
    8500.9090  303069.220000  161630.801015  36243.379432
    8503.3170  303531.780000  161873.103526  37047.308970
    8505.7460  304001.370000  162510.385090  38692.233997
    8508.1930  304218.970000  163423.687485  41304.156567
    8510.6620  304626.530000  164823.949986  45007.085571
    8513.1450  305378.090000  166842.215467  49906.015582
    8515.6460  305700.660000  168946.481604  55730.913216
    8518.1700  306112.220000  171368.732737  61993.873568
    8520.7120  306527.750000  173897.977251  67672.797493
    8523.2740  307153.310000  176333.202998  71261.720513
    8525.8590  307028.840000  177800.419869  71784.637053
    8528.4560  307604.370000  178866.629993  69886.559177
    8531.0740  308271.910000  179054.838309  66377.485035
    8533.7120  308893.440000  178282.035073  62424.433613
    8536.3710  309453.970000  176897.214935  58911.355051
    8539.0440  309600.470000  175169.409475  56118.221281
    8541.7370  310062.000000  173905.574649  54469.149517
    8544.4510  310300.500000  172881.741014  53819.065558
    8547.1870  311113.000000  172699.897258  54079.997756
    8549.9350  311792.500000  172961.028866  54801.923980
    8552.7120  311992.000000  173408.164230  55687.803009
    8555.5020  312458.470000  174305.300861  56916.732381
    8558.3070  313129.940000  175401.415172  58534.665311
    8561.1380  313592.440000  176489.534684  60012.542440
    8563.9850  314443.910000  177814.631866  60664.495764
    8566.8520  314634.370000  178653.724896  59648.406528
    8569.7400  315082.810000  179578.797190  57423.297063
    8572.6440  315666.280000  180466.881618  55102.235091
    8575.5660  316454.720000  181566.933725  53563.098308
    8578.5120  316870.160000  182573.001282  52646.044106
    8581.4720  317100.590000  183521.044007  52347.927234
    8584.4520  317558.030000  184508.101537  52820.816942
    8587.4540  318318.470000  185478.126680  54218.759219
    8590.4710  318797.910000  186048.146257  56586.672600
    8593.5080  319189.310000  186554.155517  59734.549706
    8596.5670  319774.720000  187415.157162  63674.441382
    8599.6420  320522.120000  188730.145113  67723.361289
    8602.7360  321071.530000  190152.148483  71295.259120
    8605.8540  321534.940000  191502.127045  73928.160369
    8608.9850  321617.310000  192377.090805  75290.055460
    8612.1390  322437.720000  193456.058980  75907.948429
    8615.3130  322961.090000  194039.015869  76038.854386
    8618.5030  322902.470000  194010.955120  76071.746447
    8621.7150  322101.840000  193347.882980  75946.638511
    8624.9410  323912.220000  194171.823100  76428.537442
    8628.1890  323644.560000  193656.733445  76333.429642
    8631.4540  326313.940000  194989.658556  76640.321156
    8634.7390  326929.280000  195229.536856  76126.206771
    8638.0470  327626.620000  195747.430101  75418.108074
    8641.3700  328017.970000  196316.331305  74737.994709
    8644.7140  328734.310000  197158.200781  74330.885824
    8648.0810  329290.660000  198070.063821  74175.775846
    8651.4570  329724.970000  199146.927756  74260.663440
    8654.8610  330619.280000  200932.775505  74645.541879
    8658.2810  331616.590000  203108.608288  75011.441270
    8661.7170  331936.910000  204734.459656  75003.353115
    8665.1740  332147.220000  205959.264556  74717.206305
    8668.6540  332921.530000  207084.084596  74552.078137
    8672.1500  333822.810000  207934.898603  74986.945863
    8675.6610  334245.120000  208350.678838  76054.836730
    8679.1950  335134.410000  209140.479154  77930.739355
    8682.7510  335702.690000  209899.242312  80271.602600
    8686.3230  336230.940000  210863.023574  82910.486117
    8689.9180  336317.220000  211604.786813  85253.367915
    8693.5230  337453.500000  212835.554524  87123.253506
    8697.1560  338285.750000  213558.276341  87959.119247
    8700.8060  338804.000000  213911.006079  88146.999446
    8704.4710  339557.250000  214436.758584  88669.880272
    8708.1590  340081.500000  214844.475106  89964.756102
    8711.8640  341011.720000  215503.175772  92298.625173
    8715.5850  341706.970000  216039.866314  94819.487921
    8719.3360  341586.190000  216244.569573  96301.359274
    8723.0970  342697.410000  217485.258500  97268.234988
    8726.8800  343381.620000  218693.941167  98014.107603
    8730.6800  344182.840000  220089.598158  98906.981515
    8734.4950  344634.060000  221393.255853  99544.846224
    8738.3420  345526.250000  223208.902880  100242.707176
    8742.1970  346264.470000  225172.538754  100920.577614
    8746.0770  347050.660000  227058.175306  101478.450290
    8749.9730  347628.840000  228443.784159  101782.304093
    8753.8860  348387.030000  229483.427820  101935.179580
    8757.8210  349027.220000  230097.012491  101915.028627
    8761.7740  349765.370000  230624.617961  101964.892030
    8765.7510  350648.530000  231379.213809  102133.765722
    8769.7380  350880.720000  231989.784101  102269.617698
    8773.7540  352413.870000  233678.362818  103076.481547
    8777.7810  352552.030000  234513.912433  103740.336665
    8781.8330  353537.160000  235835.469802  105084.196477
    8785.8950  354287.310000  236993.021162  106916.055030
    8789.9860  354878.440000  238080.561073  109280.908391
    8794.0890  355322.560000  239038.086422  111737.771102
    8798.2160  356331.690000  240219.601339  114067.617732
    8802.3590  357047.810000  241188.116255  115749.467715
    8806.5260  357227.940000  241819.617364  116768.327555
    8810.7050  358342.060000  243048.109466  117754.176924
    8814.9080  358900.160000  243737.601748  118430.032595
    8819.1280  359402.250000  244320.071658  119277.884505
    8823.3720  359786.340000  245003.538981  120458.736097
    8827.6280  355130.440000  242534.012581  120577.579447
    8831.9070  360897.530000  247388.448586  124599.422016
    8836.2050  361066.620000  248373.878185  126533.258195
    8840.5200  357511.690000  246759.323029  126776.128204
    8844.8530  365549.750000  253213.722436  131026.957548
    8849.2100  366555.810000  254853.147737  132970.791064
    8853.5860  366772.870000  255931.562213  134556.646458
    8857.9720  367575.940000  257453.941659  136175.478451
    8862.3840  368716.000000  259172.354045  137643.333555
    8866.8180  369042.030000  260232.728431  138434.174737
    8871.2680  370091.060000  261600.095192  139138.019074
    8875.7380  370619.090000  262549.470569  139524.850278
    8880.2230  371532.120000  263915.802068  139964.682191
    8884.7310  372046.160000  265120.153483  140193.531040
    8889.2580  372694.190000  266381.506821  140496.365122
    8893.8040  373725.190000  267879.818428  141249.204935
    8898.3680  374914.190000  269382.168773  142596.030804
    8902.9500  375198.190000  270115.458867  144271.853747
    8907.5510  375985.190000  271035.756320  146723.704112
    8912.1710  377075.190000  272080.073416  149459.538473
    8916.8080  377665.190000  272883.335779  151835.357945
    8921.4720  378012.160000  273886.603371  153930.186377
    8926.1470  379599.160000  276019.869447  156432.022388
    8930.8480  380355.120000  277754.114652  158601.860934
    8935.5670  380348.090000  278913.377789  160295.688008
    8940.3000  381393.030000  280670.622031  162260.491852
    8945.0570  382128.000000  281986.847848  163961.333882
    8949.8260  383264.970000  283536.107296  165953.159633
    8954.6220  383963.910000  284805.292846  167835.991886
    8959.4300  385648.840000  286958.502429  170274.819056
    8964.2640  386147.780000  288318.694351  172317.627606
    8969.1170  387171.720000  290069.867259  174805.445511
    8973.9820  387449.660000  291150.067661  176858.279431
    8978.8740  388441.560000  292630.240367  178985.094922
    8983.7780  389599.470000  294205.414280  181072.917888
    8988.7080  389624.370000  295030.553200  182527.732640
    8993.6510  390592.280000  296565.722163  184318.557937
    8998.6140  391604.190000  298154.858311  186136.376175
    9003.6030  392557.090000  299708.962528  187916.192502
    9008.6040  393183.000000  301019.080271  189492.993902
    9013.6260  394114.870000  302536.192526  191037.819257
    9018.6670  395127.750000  304065.315010  192660.626725
    9023.7280  395489.620000  305048.396663  194091.430952
    9028.8020  396613.500000  306691.468866  196164.257129
    9033.9020  397896.370000  308654.551280  198660.054375
    9039.0230  398234.220000  310011.633642  200794.887062
    9044.1570  398988.060000  311666.682565  203188.677184
    9049.3110  400090.940000  313535.713194  205916.484444
    9054.4850  400628.780000  314918.779552  208438.297646
    9059.6790  400973.620000  316142.809282  210919.098307
    9064.8940  401295.440000  317323.835059  213279.905668
    9070.1200  402633.280000  319215.834917  216063.721794
    9075.3760  403568.090000  320786.830125  218555.507664
    9080.6450  403091.910000  321344.835511  220516.296781
    9085.9340  402970.720000  322334.847477  222850.134786
    9091.2440  405535.530000  325501.799463  226637.922722
    9096.5660  407139.340000  327845.770390  229827.720184
    9101.9100  405595.160000  327598.744406  231215.533109
    9107.2820  408435.940000  330932.717518  235241.320826
    9112.6600  408770.720000  332184.657657  237815.131173
    9118.0660  411192.500000  335121.607922  241621.940357
    9123.4850  411439.280000  336309.528445  244204.710624
    9128.9280  411593.060000  337385.449155  246589.532560
    9134.3890  413090.840000  339514.352106  249567.325469
    9139.8710  414264.590000  341299.255984  252167.103269
    9145.3680  415239.340000  342891.159265  254508.892612
    9150.8870  415992.090000  344361.041301  256798.683606
    9156.4270  417069.840000  346301.917947  259526.467024
    9161.9790  418088.590000  348259.763398  262346.237334
    9167.5550  418545.340000  349802.609792  265015.051734
    9173.1510  419750.060000  351957.468052  268371.855388
    9178.7630  420252.780000  353522.307275  271390.620572
    9184.3950  421316.500000  355521.147001  274713.389097
    9190.0480  422201.220000  357340.970369  277795.220413
    9195.7170  422584.940000  358773.786250  280528.007373
    9201.4060  423291.660000  360515.605759  283536.778523
    9207.1110  424042.340000  362273.412082  286677.562546
    9212.8380  425172.030000  364285.194960  290172.351945
    9218.5870  425935.720000  366010.983629  293583.132027
    9224.3490  426630.410000  367702.757674  297076.917892
    9230.1340  428147.090000  370141.514733  301202.713475
    9235.9420  428441.780000  371478.266154  304416.478686
    9241.7650  427326.440000  371608.996804  306618.258941
    9247.6080  430436.120000  375382.733163  311821.006872
    9253.4680  431137.780000  377080.470470  315348.795707
    9259.3510  431053.440000  378089.172218  318352.536201
    9265.2470  430959.090000  379105.892883  321299.325490
    9271.1660  434564.720000  383359.613169  327042.125393
    9277.1010  436655.370000  386348.324243  331673.899889
    9283.0580  436169.000000  387105.003432  334442.672736
    9289.0300  436834.620000  388880.648184  338024.432891
    9295.0260  437441.250000  390566.328850  341474.194522
    9301.0440  439010.870000  393153.992518  345677.954260
    9307.0770  439646.500000  394840.622018  349124.745366
    9313.1270  440043.090000  396399.267247  352551.515182
    9319.1990  440973.690000  398425.892097  356437.252236
    9325.2870  442215.310000  400758.527521  360677.053810
    9331.3970  442735.910000  402480.159441  364429.815313
    9337.5240  443182.470000  404102.751654  368141.594343
    9343.6740  444610.060000  406635.342053  372794.343005
    9349.8410  445445.660000  408652.942373  377013.099739
    9356.0210  446622.220000  410950.533935  381563.876511
    9362.2270  446933.780000  412455.091378  385427.624335
    9368.4490  447413.340000  414135.653383  389457.402722
    9374.6930  449046.910000  416890.221314  394522.159140
    9380.9540  449523.470000  418612.782610  398639.909168
    9387.2380  450274.000000  420595.311635  403099.655846
    9393.5310  451320.560000  422830.839767  407918.432092
    9399.8560  452088.090000  424770.341625  412452.187607
    9406.1890  452808.620000  426647.870522  416974.931552
    9412.5490  453045.160000  428176.379130  421188.691439
    9418.9230  454707.660000  431073.878377  426890.441473
    9425.3200  455418.190000  433033.345634  431744.189423
    9431.7350  456015.690000  435201.815343  435870.940201
    9438.1670  457352.190000  437496.283343  441973.692266
    9444.6220  458700.720000  440055.749042  447495.437108
    9451.0880  458865.190000  441531.190063  451954.189132

