# XDI/1.0
# Column.1: energy eV
# Column.2: i0
# Column.3: itrans
# Column.4: irefer
# Beamline.name: SSRL 4-1
# Detector.I0: N2 15cm
# Detector.I1: N2 30cm
# Detector.I2: N2 15cm
# Element.edge: K
# Element.symbol: Ni
# Mono.d_spacing: 3.13550
# Mono.name: Si(111)
# Mono.notes: unfocused, detuned 25%,counter clockwise
# Sample.formula: Ni2O3
# Sample.name: Ni2O3
# Sample.prep: powder, mixed 1:100 with B(OH)3 by wt
# Sample.reference: none
# Sample.temperature: room temperature
# Scan.start_time: 1997-01-17 17:59:41
# ///
#    Note: mono d_spacing is nominal!
#     exafs to K17
#     435  E XMU XMUR I0
#-------------
#   energy   i0   itrans  irefer
    8110.0000  289575.590000  186930.589403  578507.995881
    8120.0030  289401.590000  188116.585885  580851.371010
    8130.0020  288841.590000  189063.588648  583670.380391
    8139.9990  288545.590000  190179.582672  587379.311527
    8149.9980  288349.590000  191388.596567  591459.314929
    8160.0000  288074.590000  192541.581782  595876.326499
    8169.9980  287300.590000  193357.599101  600538.239896
    8179.9990  287292.590000  194682.587087  606488.928694
    8190.0020  286917.590000  195785.589958  611991.951737
    8200.0010  286468.590000  196824.584221  617454.200572
    8209.9970  285901.590000  197764.585401  623265.356006
    8220.0010  285685.590000  198942.585982  629702.994198
    8230.0010  285438.590000  200149.584529  636112.865859
    8240.0020  284967.590000  201138.586290  642426.976145
    8250.0010  284448.590000  202137.596085  648639.851453
    8260.0000  283601.590000  202853.592805  654071.387782
    8270.0000  283377.590000  204032.592577  660818.189703
    8280.0020  281573.590000  204053.585705  664879.375764
    8290.0000  281509.590000  205312.583319  671415.126778
    8299.9990  279147.590000  204905.590388  675086.842645
    8310.0000  281484.590000  207753.587852  681141.252332
    8310.4970  281795.590000  208022.583837  682463.912324
    8311.0000  281730.590000  208050.587588  682860.272573
    8311.4980  281892.590000  208231.597929  683580.832546
    8312.0010  281497.590000  207998.586970  683205.905463
    8312.4990  281454.590000  208027.591049  683564.295779
    8313.0030  281554.590000  208146.582317  683996.331414
    8313.5000  281137.590000  207906.590277  683389.444247
    8313.9980  281374.590000  208128.596714  683963.902492
    8314.5020  280998.590000  207912.590112  683441.970145
    8315.0000  281000.590000  207975.600800  683516.481305
    8315.4980  281071.590000  208070.591757  683719.267381
    8316.0020  281302.590000  208293.599964  684286.454242
    8316.5000  281280.590000  208328.594008  683873.946604
    8316.9980  281741.590000  208712.582742  684444.871624
    8317.5030  281643.590000  208688.582806  684102.052694
    8318.0010  281492.590000  208622.588723  683930.855433
    8318.4990  281511.590000  208689.587161  683785.258674
    8318.9980  281388.590000  208639.586446  683393.819983
    8319.5030  281325.590000  208658.591302  682834.407795
    8320.0010  281195.590000  208585.593426  682164.258460
    8320.4990  280562.590000  208145.600523  680633.401441
    8320.9980  279793.590000  207620.595244  678636.306341
    8321.5030  278494.590000  206710.597160  675632.124700
    8322.0020  277182.590000  205753.584021  672436.214537
    8322.5000  275831.590000  204802.581552  669514.282723
    8323.0000  274127.590000  203558.585918  665948.842774
    8323.4990  272718.590000  202563.589136  663241.288043
    8323.9980  271172.590000  201435.590797  660110.127954
    8324.5030  270255.590000  200798.584975  658322.110287
    8325.0020  270192.590000  200753.583057  657195.277941
    8325.5010  270017.590000  200641.594609  655840.228408
    8326.0000  270767.590000  201213.584120  655571.878368
    8326.5000  272466.590000  202508.589126  656163.044221
    8326.9990  273845.590000  203555.583951  656231.161622
    8327.4990  276267.590000  205387.599867  656869.865479
    8327.9980  277650.590000  206431.585550  655221.307532
    8328.4980  279342.590000  207693.586075  652460.009822
    8328.9980  281396.590000  209181.590046  648534.840216
    8329.4970  282361.590000  209837.596939  641965.063266
    8329.9970  283155.590000  210259.595124  630786.172676
    8330.5030  283087.590000  210144.597871  616949.303903
    8331.0030  283438.590000  210197.588495  599167.975859
    8331.4970  283332.590000  209908.587281  579411.038804
    8331.9970  283397.590000  209746.597461  560343.127260
    8332.4970  283170.590000  209411.582050  540541.117657
    8332.9980  282603.590000  208817.585381  522066.081946
    8333.4970  282778.590000  208745.587116  490745.088003
    8333.9980  283093.590000  208759.599789  450215.091503
    8334.4980  282316.590000  207955.601128  407726.089956
    8334.9990  282089.590000  207532.595798  373003.094374
    8335.5000  281992.590000  207095.594118  346829.080084
    8335.9990  281903.590000  206430.590632  322895.077520
    8336.5000  281851.590000  205657.601198  305917.101711
    8337.0010  281739.590000  204537.596508  289958.092695
    8337.5020  281412.590000  203051.589914  276342.098156
    8338.0030  281497.590000  201524.585483  263378.085230
    8338.4970  281599.590000  199440.584181  249219.084817
    8338.9980  281508.590000  197106.592722  236189.101617
    8339.4990  281355.590000  194024.592050  221196.094643
    8340.0000  281352.590000  191107.586860  208065.085425
    8340.5020  281055.590000  187259.598035  193287.098184
    8341.0030  281367.590000  183480.586071  179237.086298
    8341.4980  281912.590000  179845.591608  166519.091806
    8341.9990  281793.590000  175222.597715  152361.098667
    8342.5010  281747.590000  171093.587002  140261.087874
    8343.0030  282023.590000  166314.590758  126694.100047
    8343.4980  282122.590000  161528.596127  114293.099002
    8343.9990  282910.590000  156743.594043  102139.100162
    8344.5010  282559.590000  150938.590157  89664.100036
    8345.0020  282633.590000  145836.586421  79431.095595
    8345.4980  282623.590000  139826.594145  68535.101292
    8346.0000  282608.590000  134426.592060  59836.100500
    8346.5020  282570.590000  128810.598333  51719.102230
    8346.9980  282612.590000  124015.594508  45477.118978
    8347.5000  283030.590000  119856.594663  40503.119007
    8348.0010  283075.590000  115517.595974  36077.083745
    8348.4980  282645.590000  111993.594833  33058.102023
    8349.0000  282873.590000  108955.595600  30688.083493
    8349.5020  282722.590000  106740.597600  29239.091663
    8349.9990  282512.590000  105157.604073  28315.099567
    8350.5010  282647.590000  104610.597041  28000.093701
    8350.9980  282613.590000  105073.600135  28155.087268
    8351.5000  282479.590000  106689.601725  28750.113072
    8352.0020  282043.590000  108770.595230  29493.091028
    8352.4990  282346.590000  111972.595558  30550.106107
    8353.0020  282193.590000  115230.598477  31533.085400
    8353.4990  282413.590000  118557.601098  32412.103819
    8354.0010  282208.590000  121757.599434  33053.094023
    8354.4980  282155.590000  124350.595156  33392.087021
    8355.0010  282486.590000  127282.596081  33576.109270
    8355.4980  282173.590000  129452.594558  33448.092145
    8356.0020  281989.590000  131639.596035  33184.100326
    8356.4980  282167.590000  133875.596606  32939.086272
    8357.0010  282149.590000  135869.598512  32733.093222
    8357.4980  282420.590000  138341.589612  32721.092931
    8358.0020  282123.590000  140311.596307  32819.099158
    8358.4990  282197.590000  142597.588848  33211.114678
    8359.0030  282381.590000  144706.595379  33751.106848
    8359.5000  282433.590000  146543.592410  34413.087524
    8359.9980  282231.590000  148079.586380  35174.095031
    8360.5010  282075.590000  149088.588754  35857.103220
    8360.9990  281793.590000  149668.590420  36541.092622
    8361.5030  282047.590000  150059.595056  37144.084126
    8362.0000  281964.590000  149873.588533  37645.114907
    8362.4980  282349.590000  149493.585270  38175.100512
    8363.0020  282701.590000  148885.594522  38590.116290
    8363.5000  282273.590000  147568.589009  38895.092192
    8363.9980  282408.590000  146582.589872  39211.106000
    8364.5020  282422.590000  145386.599134  39558.096758
    8365.0000  282400.590000  144345.595767  39901.120047
    8365.4980  282663.590000  143655.584819  40316.090717
    8366.0030  282336.590000  142906.595818  40669.085782
    8366.5010  282429.590000  142714.592692  41039.120921
    8367.0000  282595.590000  142831.593015  41502.109822
    8367.4980  282312.590000  142950.588018  41805.087064
    8368.0030  282399.590000  143475.595391  42216.112196
    8368.5010  282475.590000  144119.589820  42558.110154
    8368.9990  282575.590000  144788.591667  42857.115618
    8369.4980  283027.590000  145747.589144  43206.082505
    8369.9970  282751.590000  146226.594884  43311.121011
    8370.8810  282690.590000  147286.589609  43389.100889
    8371.7820  282654.590000  148242.570530  43141.090644
    8372.7080  282628.560000  149163.560701  42552.109328
    8373.6460  282431.560000  150014.529952  41681.073620
    8374.6030  282781.530000  151188.487612  40592.094087
    8375.5840  282896.500000  152077.431115  39269.094357
    8376.5830  282714.470000  152488.387925  37763.062729
    8377.6010  282833.440000  152700.329972  36169.071426
    8378.6370  282327.410000  152152.259367  34463.084127
    8379.6900  282255.340000  151412.170210  32899.048035
    8380.7630  282558.280000  150600.077533  31686.059799
    8381.8540  282230.220000  149300.972889  30769.047115
    8382.9690  282216.160000  148240.862782  30463.017354
    8384.0960  282844.090000  147644.746546  30808.019427
    8385.2480  282603.030000  146750.621246  31560.006188
    8386.4180  283233.940000  146255.486402  32871.992364
    8387.6070  282975.870000  144974.335324  34294.971125
    8388.8130  283068.780000  143397.186350  35755.972102
    8390.0400  282803.690000  141136.030699  37019.958348
    8391.2840  283169.560000  139007.858870  38123.941483
    8392.5470  283318.470000  136910.687971  38976.924854
    8393.8340  283506.370000  135193.500882  39639.896246
    8395.1340  283482.250000  133849.296086  39960.861435
    8396.4590  283525.120000  132843.085834  40006.847459
    8397.7960  283611.000000  132172.895633  39892.840868
    8399.1570  284100.870000  131988.665458  39914.794760
    8400.5370  284231.720000  132143.442870  40142.796957
    8401.9370  284405.590000  133050.180380  40706.767373
    8403.3480  284189.440000  134441.956813  41316.732287
    8404.7840  284160.280000  136289.683361  41828.697422
    8406.2380  284358.120000  138391.417600  42130.672135
    8407.7190  284526.970000  140553.155328  42155.651114
    8409.2110  284462.810000  142639.878885  42055.624061
    8410.7220  284910.620000  144783.571503  42073.623201
    8412.2520  284979.470000  146548.281774  41997.577691
    8413.8070  285147.280000  148332.966241  41743.532066
    8415.3750  285214.090000  149956.655836  41199.507040
    8416.9610  285538.910000  151441.332697  40494.465361
    8418.5720  285610.720000  152471.007737  39661.441337
    8420.1960  286077.500000  153371.648808  38837.413719
    8421.8450  286165.280000  153647.289242  37827.397664
    8423.5070  286207.090000  153494.930389  36616.338200
    8425.1940  286714.870000  153162.559478  35256.321186
    8426.8940  287127.660000  152544.190101  33868.261104
    8428.6190  286984.410000  151565.821164  32544.226958
    8430.3560  287071.190000  150950.404189  31686.202500
    8432.1190  287855.940000  151080.007375  31534.164540
    8433.8960  288371.690000  151310.594022  31985.115000
    8435.6970  288026.440000  151143.177281  32879.079744
    8437.5110  288703.190000  151487.745841  34354.043833
    8439.3510  289020.940000  151531.290600  35968.988701
    8441.2090  289173.690000  151238.855423  37735.957172
    8443.0810  289492.410000  150677.407758  39452.885153
    8444.9720  289611.120000  149667.932626  40900.858685
    8446.8890  289839.840000  148748.460465  42046.817278
    8448.8170  290442.560000  148426.981269  43347.764301
    8450.7720  290549.280000  148482.484302  45227.712187
    8452.7400  290731.970000  149197.984272  47666.658842
    8454.7280  291312.690000  150613.480958  50505.630563
    8456.7400  291364.370000  152207.970781  52980.547321
    8458.7670  291404.060000  154097.439507  54692.529419
    8460.8130  292111.750000  156528.912063  55580.461884
    8462.8770  292559.440000  158706.353232  55412.414644
    8464.9620  292590.090000  160233.803301  54334.371496
    8467.0660  293200.780000  161241.256397  52665.296611
    8469.1890  293609.440000  160960.685997  50559.261777
    8471.3320  294021.090000  159693.108174  48500.198924
    8473.4890  294131.750000  157739.509152  46854.122397
    8475.6720  294401.410000  155939.931131  46026.065451
    8477.8670  295070.060000  155088.313576  46122.999017
    8480.0900  295601.690000  155145.704786  46622.940539
    8482.3250  295627.310000  155863.071213  46816.882412
    8484.5800  296012.940000  157261.459855  46054.835821
    8486.8550  296002.560000  158440.812828  43917.773564
    8489.1490  296937.190000  159678.167266  41167.715094
    8491.4650  297163.810000  159890.520727  38584.642537
    8493.7990  297224.410000  159585.853316  36727.582617
    8496.1460  297906.030000  159469.168278  35819.505851
    8498.5210  297712.620000  158882.503730  35365.435993
    8500.9090  297884.220000  158626.802226  35387.380995
    8503.3170  298748.780000  159024.108984  36121.303631
    8505.7460  299910.370000  159981.384782  37733.242255
    8508.1930  299437.970000  160452.682216  40112.142110
    8510.6620  300348.530000  162072.953967  43693.072565
    8513.1450  300375.090000  163608.224299  48260.030572
    8515.6460  300762.660000  165684.478663  53912.925197
    8518.1700  301381.220000  168188.735601  60140.877898
    8520.7120  301954.750000  170753.973955  65886.796953
    8523.2740  302474.310000  173129.202020  69710.715838
    8525.8590  302818.840000  174927.418929  70714.641083
    8528.4560  303165.370000  175968.646135  69029.567838
    8531.0740  304045.910000  176355.846639  65714.487412
    8533.7120  303953.440000  175279.024831  61650.425520
    8536.3710  304692.970000  174081.227300  58124.311220
    8539.0440  305217.470000  172584.408068  55385.256985
    8541.7370  305742.000000  171333.578729  53663.142639
    8544.4510  306111.500000  170358.734164  52962.092122
    8547.1870  306278.000000  169762.887877  53019.972715
    8549.9350  306970.500000  169991.026738  53709.916634
    8552.7120  307338.000000  170496.167618  54599.832728
    8555.5020  307602.470000  171225.305881  55711.760657
    8558.3070  308329.940000  172374.415178  57274.640030
    8561.1380  309438.440000  173777.539202  58927.564593
    8563.9850  309807.910000  174817.620210  59604.511067
    8566.8520  310278.370000  175859.707780  58774.410364
    8569.7400  310679.810000  176720.790449  56675.330733
    8572.6440  311604.280000  177797.871103  54437.232976
    8575.5660  311798.720000  178526.946644  52707.120033
    8578.5120  312449.160000  179647.009640  51781.030102
    8581.4720  312633.590000  180560.042128  51427.927724
    8584.4520  313250.030000  181648.098294  51882.849852
    8587.4540  313929.470000  182581.133772  53154.759161
    8590.4710  314500.910000  183205.151176  55393.628029
    8593.5080  314845.310000  183664.153822  58452.522226
    8596.5670  315170.720000  184347.149158  62215.468608
    8599.6420  316154.120000  185759.145183  66281.373578
    8602.7360  316489.530000  187025.142646  69817.260233
    8605.8540  317281.940000  188570.129828  72589.158536
    8608.9850  317320.310000  189434.099731  74033.056681
    8612.1390  318386.720000  190671.060029  74735.950734
    8615.3130  318477.090000  190994.005263  74780.850399
    8618.5030  318523.470000  191065.950967  74841.740803
    8621.7150  317737.840000  190437.896779  74721.639848
    8624.9410  319953.220000  191509.822093  75317.536611
    8628.1890  319106.560000  190651.735798  75078.429281
    8631.4540  322689.940000  192525.656257  75669.322257
    8634.7390  323135.280000  192634.547778  75123.209508
    8638.0470  323264.620000  192817.441979  74316.109470
    8641.3700  323661.970000  193352.330007  73602.991383
    8644.7140  324599.310000  194333.203461  73263.880834
    8648.0810  325155.660000  195209.066769  73064.770985
    8651.4570  325993.970000  196495.923248  73240.663884
    8654.8610  326572.280000  198017.775609  73511.547481
    8658.2810  326773.590000  199674.600843  73698.433639
    8661.7170  327919.910000  201837.456308  73949.298409
    8665.1740  328442.220000  203252.273083  73738.196285
    8668.6540  328542.530000  203992.085561  73393.119895
    8672.1500  329467.810000  204879.879900  73782.963325
    8675.6610  330359.120000  205587.679090  74886.872278
    8679.1950  330570.410000  205939.467279  76543.735048
    8682.7510  330874.690000  206497.255888  78736.609381
    8686.3230  331432.940000  207438.040805  81326.498361
    8689.9180  331768.220000  208350.778128  83771.369183
    8693.5230  333368.500000  209903.538508  85822.248959
    8697.1560  333984.750000  210505.279433  86645.123223
    8700.8060  334780.000000  211044.012057  86924.002262
    8704.4710  335389.250000  211457.746332  87353.875020
    8708.1590  335794.500000  211777.472571  88520.748044
    8711.8640  336511.720000  212302.167359  90723.623213
    8715.5850  337158.970000  212804.869500  93212.491362
    8719.3360  337580.190000  213325.588280  94923.374516
    8723.0970  338202.410000  214236.246646  95778.234550
    8726.8800  338879.620000  215429.937586  96497.108201
    8730.6800  339930.840000  216975.595733  97441.976219
    8734.4950  340760.060000  218506.244539  98207.844322
    8738.3420  341131.250000  219937.914694  98755.717475
    8742.1970  341806.470000  221832.545945  99404.581058
    8746.0770  342672.660000  223777.185109  100009.446594
    8749.9730  343328.840000  225224.797873  100321.306998
    8753.8860  344323.030000  226440.418525  100573.173536
    8757.8210  345082.220000  227127.017052  100583.035222
    8761.7740  345789.370000  227643.619216  100603.890760
    8765.7510  346553.530000  228288.206531  100750.754984
    8769.7380  347102.720000  229090.783432  100988.622219
    8773.7540  347944.870000  230322.349594  101527.474612
    8777.7810  348473.030000  231402.921128  102315.332383
    8781.8330  349521.160000  232725.466491  103609.197358
    8785.8950  349852.310000  233615.007658  105276.054856
    8789.9860  350365.440000  234638.568558  107555.912008
    8794.0890  351670.560000  236167.081803  110261.765840
    8798.2160  352232.690000  237072.620150  112469.627604
    8802.3590  352946.810000  238013.112262  114145.467504
    8806.5260  353567.940000  238951.609144  115331.323419
    8810.7050  354150.060000  239824.096081  116144.165050
    8814.9080  354821.160000  240583.587874  116874.018287
    8819.1280  355118.250000  241048.059977  117604.868404
    8823.3720  355884.340000  241959.532337  118889.725906
    8827.6280  351047.440000  239349.007942  118891.578294
    8831.9070  356060.530000  243639.444141  122604.428513
    8836.2050  357466.620000  245456.879236  124982.257490
    8840.5200  353018.690000  243250.311516  124917.110545
    8844.8530  362102.750000  250415.743670  129528.963348
    8849.2100  362278.810000  251439.149194  131121.792988
    8853.5860  362618.870000  252611.551123  132746.638502
    8857.9720  363608.940000  254239.961018  134435.489157
    8862.3840  364158.000000  255533.352527  135662.331184
    8866.8180  364553.030000  256623.730350  136477.180911
    8871.2680  365667.060000  258043.079881  137240.004018
    8875.7380  366606.090000  259281.449002  137785.847123
    8880.2230  367679.120000  260750.810253  138313.687205
    8884.7310  367766.160000  261624.168203  138363.530625
    8889.2580  369089.190000  263364.504722  138935.364606
    8893.8040  369992.190000  264766.815555  139594.207694
    8898.3680  370514.190000  265778.151425  140631.028813
    8902.9500  371087.190000  266706.458828  142345.848387
    8907.5510  371993.190000  267740.746272  144796.693921
    8912.1710  373069.190000  268769.060151  147507.526031
    8916.8080  373776.190000  269653.336682  149923.354848
    8921.4720  374781.160000  271069.591276  152279.185423
    8926.1470  375517.160000  272590.881673  154434.038396
    8930.8480  376123.120000  274195.110913  156514.856721
    8935.5670  376043.090000  275281.369906  158149.681824
    8940.3000  377492.030000  277319.634440  160275.507433
    8945.0570  377971.000000  278455.837226  161862.316077
    8949.8260  379005.970000  279906.090807  163764.162109
    8954.6220  380209.910000  281529.290857  165872.993305
    8959.4300  380963.840000  282952.506636  167812.815116
    8964.2640  381535.780000  284391.677462  169903.619814
    8969.1170  382581.720000  286160.882105  172357.460252
    8973.9820  384088.660000  288155.052314  174988.281943
    8978.8740  384011.560000  288820.259823  176599.093714
    8983.7780  385540.470000  290682.401692  178861.912224
    8988.7080  385800.370000  291657.555675  180416.733217
    8993.6510  386631.280000  293089.720075  182129.554910
    8998.6140  387332.190000  294428.855581  183769.360707
    9003.6030  388172.090000  295883.966446  185492.188792
    9008.6040  388535.000000  296977.107242  186917.016408
    9013.6260  389780.870000  298746.177869  188628.808817
    9018.6670  390664.750000  300181.314967  190154.628486
    9023.7280  391445.620000  301446.394435  191784.434465
    9028.8020  392850.500000  303327.455254  193992.234977
    9033.9020  393072.370000  304432.547126  195885.056838
    9039.0230  393935.220000  306166.624890  198261.879302
    9044.1570  394439.060000  307614.678008  200497.655685
    9049.3110  395818.940000  309715.732384  203333.499248
    9054.4850  396411.780000  311128.782925  205854.296393
    9059.6790  396056.620000  311770.824433  207912.118006
    9064.8940  397397.440000  313718.845475  210801.912293
    9070.1200  397760.280000  314858.840271  213057.719435
    9075.3760  398981.090000  316641.849319  215684.528154
    9080.6450  399176.910000  317716.857866  217964.324885
    9085.9340  399216.720000  318848.837656  220390.115292
    9091.2440  401220.530000  321533.817980  223811.935659
    9096.5660  403244.340000  324220.772694  227201.702666
    9101.9100  401341.160000  323683.743462  228387.520768
    9107.2820  404003.940000  326848.718858  232279.324039
    9112.6600  404958.720000  328612.661328  235166.138333
    9118.0660  406686.500000  330961.587357  238552.907083
    9123.4850  407621.280000  332679.514631  241515.706449
    9128.9280  407018.060000  333135.447964  243422.534375
    9134.3890  408720.840000  335424.327722  246504.310518
    9139.8710  409709.590000  337053.237162  249007.095402
    9145.3680  411079.340000  338956.146355  251568.882125
    9150.8870  411911.090000  340493.019652  253870.685479
    9156.4270  412937.840000  342354.918780  256535.478596
    9161.9790  413340.590000  343808.778454  258926.264011
    9167.5550  414460.340000  345873.633916  261996.066019
    9173.1510  414527.060000  347053.468481  264580.844775
    9178.7630  415906.780000  349363.297776  268168.616473
    9184.3950  417376.500000  351666.151442  271697.412264
    9190.0480  417761.220000  353052.978103  274419.216749
    9195.7170  418643.940000  354897.769033  277450.981252
    9201.4060  418953.660000  356264.601407  280172.789206
    9207.1110  420473.340000  358667.392837  283778.548926
    9212.8380  420799.030000  359992.197026  286714.359270
    9218.5870  422020.720000  362113.975731  290402.128467
    9224.3490  423267.410000  364260.748875  294242.911046
    9230.1340  423709.090000  365752.513209  297566.702894
    9235.9420  424651.780000  367668.233415  301278.441481
    9241.7650  423369.440000  367637.014774  303304.265578
    9247.6080  425669.120000  370685.735998  307891.032828
    9253.4680  427330.780000  373188.470083  312056.784782
    9259.3510  428495.440000  375308.177901  315969.565174
    9265.2470  426975.090000  375050.909075  317859.345216
    9271.1660  429816.720000  378639.583371  322990.104092
    9277.1010  430865.370000  380673.318178  326808.925596
    9283.0580  431930.000000  382801.982334  330696.632859
    9289.0300  433010.620000  384948.652114  334608.420552
    9295.0260  433837.250000  386848.353096  338213.233114
    9301.0440  435010.870000  389032.006550  342039.976055
    9307.0770  435389.500000  390513.614424  345296.729458
    9313.1270  435688.090000  391948.282006  348580.536233
    9319.1990  436357.690000  393760.909696  352244.274625
    9325.2870  437596.310000  396045.529731  356415.070022
    9331.3970  438556.910000  398150.158480  360499.816152
    9337.5240  439795.470000  400485.751033  364819.593836
    9343.6740  440215.060000  402088.341813  368584.340359
    9349.8410  441510.660000  404511.940294  373168.094906
    9356.0210  442052.220000  406243.531029  377169.873913
    9362.2270  443122.780000  408435.091689  381637.622969
    9368.4490  443179.340000  409679.652456  385244.404139
    9374.6930  444103.910000  411784.220945  389681.156215
    9380.9540  445220.470000  414092.781111  394310.905225
    9387.2380  446080.000000  416170.311088  398855.652452
    9393.5310  447160.560000  418414.841748  403624.437214
    9399.8560  447661.090000  420095.342132  407900.185296
    9406.1890  448688.620000  422267.872031  412665.934566
    9412.5490  449517.160000  424328.376744  417411.689155
    9418.9230  450819.660000  426875.880323  422699.443304
    9425.3200  450611.190000  427976.347517  426661.191715
    9431.7350  451841.690000  430655.813765  431325.938932
    9438.1670  452951.190000  432758.281736  437165.687718
    9444.6220  454210.720000  435279.751522  442594.438197
    9451.0880  455287.190000  437595.188852  447897.188736

