# XDI/1.0 EXAFS Data Collector 1.1 AD.RGN
# Column.1: energy eV
# Column.2: mutrans
# Column.3: mufluor
# Column.4: murefer
# Column.5: i0
# Beamline.name: SSRL 4-3
# Detector.I0: N2 15cm
# Detector.I1: N2+Ar 30cm
# Detector.If: Ar   (Lytle detector, using Rb Filter)
# Detector.I2: Ar
# Element.edge: K
# Element.symbol: Sr
# Mono.d_spacing: 1.920128
# Mono.name: Si(220)
# Mono.notes: (?) unfocussed, detuned 50%, clockwise at E=17000eV
# Sample.formula: SrSO4
# Sample.name: strontium sulfate
# Sample.prep: powder
# Sample.reference: SrCO3
# Sample.temperature: room temperature
# Scan.start_time: 1995-06-14 22:11:02
# ///
#    Note: mono d_spacing is nominal!
#-------------
#   energy   mutrans      mufluor    murefer      i0
  15699.933  -1.6777806  0.76427432  0.55741031   133365.59
  15710.044  -1.6800377  0.75647011  0.55647704   131945.59
  15719.844  -1.6824041  0.74735456  0.55539378   131281.59
  15729.982  -1.6846302  0.73813087  0.55434872    130342.6
  15740.136  -1.6870995  0.73032663  0.55319787    129314.6
  15749.973  -1.6893158  0.72085346  0.55224171    128447.6
  15760.152  -1.6918482  0.71103061  0.55101753    126119.6
  15770.016  -1.6942678  0.70284595  0.55015813    127084.6
  15779.891  -1.6962222   0.6930096  0.54896804    126605.6
  15790.109  -1.6985099  0.68381213  0.54785817    125737.6
  15800.011  -1.7006837  0.67416664  0.54673692    124955.6
  15809.925  -1.7029955  0.66591174  0.54567682    124298.6
  15819.854  -1.7052435  0.65706001  0.54461841    123612.6
  15830.124  -1.7075725  0.64864948  0.54349769    122836.6
  15840.076  -1.7098339  0.63959566  0.54238422    122092.6
  15850.042  -1.7120866  0.63235756  0.54130614    121459.6
  15860.021  -1.7143394  0.62308399  0.54015691    120747.6
  15870.012  -1.7164844  0.61517308  0.53906799    120050.6
  15880.018  -1.7187632  0.60750567  0.53796809    119101.6
  15890.033  -1.7209077  0.59982548  0.53686965    118402.6
  15900.063    -1.72318  0.59329424  0.53575238    117639.6
  15910.108  -1.7254113  0.58741276  0.53466063    116980.6
  15920.164  -1.7276488  0.58070288  0.53359566    116248.6
  15929.896  -1.7297621  0.57391361  0.53247723    115541.6
  15939.978  -1.7319367  0.56855533   0.5314218    114908.6
  15950.073  -1.7341286  0.56190483  0.53035335    114152.6
  15959.844  -1.7363259   0.5571521  0.52920616    113374.6
  15969.964  -1.7385493  0.55264126  0.52805332    112774.6
  15980.097  -1.7407847   0.5487004  0.52703558    111982.6
  15989.906  -1.7428919  0.54515172  0.52592006    111293.6
  16000.064  -1.7450644  0.54381349    0.524823    110778.6
  16009.897  -1.7471802  0.54314488   0.5237952    110119.6
  16020.082  -1.7494186  0.54332413  0.52266518    109271.6
  16029.942  -1.7513438  0.54294185  0.52153736    108602.6
  16040.152  -1.7533827  0.54814909  0.52048288    107802.6
  16050.036  -1.7553916  0.55118088  0.51943683    107180.6
  16059.933  -1.7573364  0.56072271  0.51838651    106378.6
  16069.841  -1.7591489   0.5726986  0.51737491    105608.6
  16080.104  -1.7608315  0.59242087  0.51633371    104901.6
  16090.039  -1.7621725  0.62021596  0.51540358    104300.6
  16099.984  -1.7629148   0.6687866  0.51453825    103539.6
  16109.943  -1.7626423  0.75474224  0.51387009    102735.6
  16119.917  -1.7590517  0.95175066  0.51393663    102233.6
  16121.293  -1.7582719  0.98709735  0.51404654    101971.6
  16122.670  -1.7570671   1.0352995  0.51424648    101964.6
  16123.702  -1.7561553   1.0765888  0.51438097    101885.6
  16125.079  -1.7543205   1.1441488   0.5146382    101806.6
  16126.112  -1.7526372   1.2052788  0.51510239    101760.6
  16127.490  -1.7498186   1.3106035  0.51575482    101506.6
  16128.867  -1.7460219   1.4470339  0.51692637    101621.6
  16129.901   -1.742281   1.5751465  0.51804674    101428.6
  16131.278  -1.7350997   1.8236275  0.52078695    101230.6
  16132.657  -1.7243862   2.1891467  0.52590388    101353.6
  16133.690  -1.7124847   2.5889739  0.53132214    101292.6
  16135.069  -1.6866781   3.4269979  0.54176204    101054.6
  16136.104  -1.6594527   4.2846416  0.55066355    101044.6
  16137.483  -1.6043673   5.9471325  0.56400848    100945.6
  16138.861  -1.5294542   8.0737477  0.57942668    100966.6
  16139.897  -1.4649829   9.7900573  0.59162267    100799.6
  16141.276  -1.3759293   12.002053  0.60785973    100669.6
  16142.657  -1.3096248   13.572827  0.62035995    100611.6
  16143.692  -1.2828368   13.805234  0.62590858    100569.6
  16145.073  -1.2782329   13.824724  0.62787778    100427.6
  16146.108  -1.2957588   13.839757  0.62522631    100369.6
  16147.490  -1.3341086   12.913042  0.61728627    100266.6
  16148.871  -1.3729035   11.960475  0.60753077    100198.6
  16149.907  -1.3955542    11.40636  0.60025608   99963.602
  16151.289  -1.4166187   10.890439  0.59109956   99896.602
  16152.670  -1.4273172   10.630049  0.58428967   99793.602
  16153.707  -1.4314202   10.532845  0.58073767   99788.602
  16155.090  -1.4351724   10.441467  0.57738791    199160.2
  16155.779  -1.4365918   10.413893  0.57652841   199305.17
  16156.473  -1.4380555    10.38075  0.57580129   198996.08
  16157.162  -1.4394436   10.350812  0.57521873   199101.92
  16157.854  -1.4407559   10.328139  0.57484066    198913.7
  16158.547  -1.4417601   10.308256   0.5744697   198847.41
  16159.237  -1.4424068   10.296866  0.57415771   198632.06
  16160.274  -1.4422819   10.312978  0.57387197   199019.66
  16160.968  -1.4417212   10.331508  0.57369156   199250.19
  16161.659  -1.4408119   10.359148  0.57373485   199207.64
  16162.695  -1.4388023   10.424643  0.57406339   199307.05
  16163.389  -1.4371908   10.466519  0.57441219   199336.39
  16164.426  -1.4340122   10.559716  0.57534445   199561.66
  16165.465  -1.4304001   10.668639  0.57640554   199452.87
  16166.157  -1.4279535     10.7389  0.57707012   199461.02
  16167.195  -1.4243174   10.845192  0.57810167   199100.11
  16168.234  -1.4218023    10.90104   0.5789268   199317.12
  16169.271  -1.4208593   10.918404   0.5798462   199531.09
  16170.311  -1.4212044   10.906884  0.58085593   199802.98
  16171.349  -1.4222157   10.892565  0.58211883   200353.81
  16172.388  -1.4230141   10.884388  0.58357641   200651.59
  16173.428  -1.4227001   10.911463  0.58507904    201540.3
  16174.466  -1.4214354   10.950594  0.58657676   202101.94
  16175.506  -1.4196134    11.00891  0.58781332   202581.52
  16176.545  -1.4171011   11.083124  0.58906114   203046.05
  16177.932  -1.4130735   11.189349  0.59016964    203220.5
  16178.971  -1.4100266   11.281904    0.590751   203486.89
  16180.012  -1.4069098   11.365242  0.59100055   204104.22
  16181.399  -1.4035554   11.459417  0.59084674   204504.48
  16182.440  -1.4021181   11.496624  0.59050235   205106.69
  16183.826  -1.4019267   11.511889  0.58978543   205467.83
  16185.214  -1.4041411   11.463438  0.58886723   206117.91
  16186.254  -1.4070317   11.399982  0.58813471   206668.92
  16187.644  -1.4120646   11.282114   0.5870904   207151.87
  16189.030  -1.4170462   11.163325  0.58586606   207688.75
  16190.419  -1.4212808   11.063753  0.58447773   208137.58
  16191.809  -1.4243965   11.000517  0.58306067   208974.34
  16193.197   -1.426298   10.961851  0.58157791   209624.05
  16194.587  -1.4274867   10.941497  0.58025392   210075.67
  16195.976  -1.4286421   10.922217  0.57907319   210532.25
  16197.366  -1.4300238   10.892498  0.57795315   211184.75
  16198.755  -1.4318485   10.861126  0.57708127    211704.2
  16200.493  -1.4341461    10.80894  0.57598065   212373.59
  16201.884  -1.4356451   10.785143  0.57535314   213145.91
  16203.274  -1.4367164   10.769845  0.57473057   213780.17
  16205.013  -1.4376386   10.758222   0.5742771   214946.36
  16206.405  -1.4384165   10.748741  0.57421936   215639.48
  16208.145  -1.4396097   10.729773  0.57443167   216666.56
  16209.884  -1.4410316   10.708073   0.5749626   217228.56
  16211.276  -1.4422088   10.690169  0.57537127    218103.5
  16213.016  -1.4434248   10.673539  0.57603544   218822.39
  16214.757  -1.4441537   10.670782  0.57663243    219708.2
  16216.499  -1.4443221   10.679566  0.57695476   220298.95
  16218.240  -1.4439889   10.701739  0.57714324   221537.64
  16219.981  -1.4432226   10.736655    0.577206   222116.27
  16221.725  -1.4422279   10.778871   0.5771701   223053.83
  16223.468   -1.440768    10.83219   0.5770732   223939.33
  16225.210  -1.4388712   10.901653  0.57686091   224710.77
  16226.954  -1.4365919   10.979917  0.57670124   225327.14
  16228.698   -1.434391   11.059545  0.57654864   226043.45
  16230.792   -1.432403    11.14237  0.57644079    226482.7
  16232.535  -1.4316623   11.174058  0.57643985   227060.89
  16234.281  -1.4319078    11.18097   0.5763945   227858.02
  16236.376  -1.4335355   11.129907  0.57629398   228795.08
  16238.122  -1.4356807   11.064476   0.5760935   229892.06
  16240.217  -1.4392765   10.956096  0.57567085      231181
  16242.313  -1.4432149   10.854513  0.57507264   232620.87
  16244.061  -1.4462768   10.769627  0.57440802   234168.67
  16246.159   -1.449492   10.701012  0.57359806   236067.42
  16248.257  -1.4521603   10.669704  0.57284448   237551.11
  16250.354   -1.453999   10.658646  0.57211538   239071.72
  16252.454  -1.4551387   10.667954  0.57141253   240682.28
  16254.553  -1.4555928   10.686573  0.57074494   242193.77
  16256.653  -1.4556346   10.706919  0.57018181   243284.19
  16258.753  -1.4557596   10.731158  0.56978824   244261.56
  16260.855  -1.4561324   10.738189  0.56947715   245147.86
  16262.957  -1.4567408   10.745966  0.56923256   246241.11
  16265.059  -1.4573649   10.739541   0.5689931   247322.28
  16267.162  -1.4578974   10.731824  0.56875112   248456.39
  16269.616  -1.4586003   10.722016  0.56854235   249997.44
  16271.719  -1.4591568    10.70892  0.56829015   251117.42
  16274.174  -1.4597507   10.704509  0.56807636   252617.36
  16276.280  -1.4601523   10.703863  0.56791229   253790.22
  16278.736  -1.4605578   10.719813  0.56782967   255513.02
  16280.844  -1.4607394    10.73824  0.56782219   257065.75
  16283.301  -1.4608284   10.762749  0.56789812   258776.42
  16285.760  -1.4608322   10.789841  0.56796561   260188.03
  16288.220  -1.4608902   10.805731  0.56788552   261632.58
  16290.328  -1.4611193   10.814043  0.56761935   263252.06
  16292.790   -1.461519   10.821512  0.56725569   264753.47
  16295.252  -1.4621367    10.82643   0.5667565   265932.84
  16297.715  -1.4628599   10.823416  0.56632008   267174.12
  16300.179  -1.4635379   10.824354  0.56603555   268759.34
  16302.994  -1.4641572   10.832401  0.56589513   270062.53
  16305.459  -1.4645213   10.839419  0.56588452   271625.62
  16307.925  -1.4651331   10.841237  0.56576995   273271.69
  16310.392  -1.4663323   10.825755  0.56559303   274829.66
  16313.211  -1.4681528   10.802928  0.56534761   276094.56
  16315.680   -1.469515   10.780899  0.56505849   277532.41
  16318.148  -1.4705899   10.773275  0.56467042   278969.22
  16320.972  -1.4717696   10.764939  0.56421974   280591.94
  16323.442  -1.4724941   10.761888  0.56372776   282345.59
  16326.268  -1.4731086   10.770247  0.56316974   283619.19
  16329.092  -1.4733545   10.783506   0.5625962   285159.72
  16331.564  -1.4736465   10.798298  0.56213733   287018.22
  16334.393  -1.4740987   10.802278  0.56165786   287954.62
  16337.221  -1.4748609   10.807259  0.56121714   289378.97
  16340.050  -1.4757998   10.802945  0.56075127   291282.25
  16342.881  -1.4768234   10.800483  0.56027669   292949.47
  16345.713  -1.4777312   10.796349  0.55981234   294503.62
  16348.544  -1.4786344   10.796256  0.55961738   296030.72
  16351.378  -1.4795385   10.790155   0.5594231   297588.75
  16354.211  -1.4803793   10.789432  0.55922646   299303.72
  16357.047  -1.4812141   10.795194  0.55908412   301117.62
  16360.238  -1.4819791   10.800094  0.55895089   302710.47
  16363.076  -1.4827176   10.802219  0.55881939   304353.25
  16365.914  -1.4834012    10.80473  0.55866393   305884.97
  16369.107  -1.4842564   10.809845  0.55843359   307204.62
  16371.948  -1.4849322   10.812752  0.55811228   308803.22
  16375.146  -1.4857792   10.813091  0.55769305   310605.75
  16377.989  -1.4866109   10.815158  0.55732046   312069.22
  16381.188  -1.4875928   10.816575  0.55680523   314069.62
  16384.389  -1.4885329   10.815401  0.55631636   315521.97
  16387.234  -1.4893105   10.813695  0.55584739   317272.22
  16390.438  -1.4901937   10.815832  0.55538523   319047.44
  16393.641  -1.4910967   10.819196  0.55492517   320471.59
  16396.848  -1.4919834   10.817965  0.55450517   322054.69
  16400.055  -1.4928483   10.817008  0.55410799   323357.72
  16403.262  -1.4938644   10.814457  0.55376733   325331.66
  16406.471  -1.4949673    10.81388  0.55341816   327152.56
  16409.684  -1.4960483   10.807805  0.55307986   328863.41
  16412.895  -1.4970204   10.805573  0.55273425   330685.16
  16416.107  -1.4979059   10.804123  0.55240032   332463.87
  16419.320  -1.4986596   10.806936  0.55204883   334055.53
  16422.895  -1.4994826    10.81467  0.55153657   335204.09
  16426.111  -1.5003616   10.813879   0.5510611   337304.62
  16429.332  -1.5013027   10.816757  0.55064532   338962.09
  16432.908  -1.5023995   10.810731   0.5501303   340499.47
  16436.129  -1.5034517   10.809453  0.54975347   342530.81
  16439.711  -1.5045883   10.807626   0.5493189   344517.06
  16443.291  -1.5056367   10.805715  0.54893917   345400.28
  16446.518  -1.5065451   10.809074  0.54863668   347396.41
  16450.104  -1.5074458   10.811079  0.54832928    348650.5
  16453.689  -1.5082191   10.820561  0.54805729    350369.5
  16457.277  -1.5090676   10.823355  0.54771824   352177.47
  16460.510  -1.5098399   10.824547  0.54748755   354412.34
  16464.100  -1.5107219   10.829596  0.54709809   356047.19
  16467.695  -1.5116219   10.833488  0.54670595   357432.94
  16471.289  -1.5125911   10.836617  0.54631948   359269.66
  16474.885  -1.5134744   10.838364  0.54591668   361105.28
  16478.842  -1.5144654   10.839233  0.54543102   362175.84
  16482.441  -1.5152998   10.848306  0.54500563   364119.37
  16486.043  -1.5162318   10.849596  0.54457702   365301.81
  16489.646  -1.5171691   10.853312  0.54413283   367126.19
  16493.611   -1.518248   10.850833  0.54367529    368772.5
  16497.217  -1.5192035   10.854418  0.54323931   370444.78
  16500.826  -1.5202386   10.852194  0.54286905   372060.97
  16504.797  -1.5213666   10.852336    0.542378   373755.09
  16508.406  -1.5223893   10.849665  0.54199514   375459.16
  16512.381  -1.5236107   10.849246  0.54156296   377101.19
  16516.357  -1.5247739   10.846737  0.54108182   378281.12
  16519.975  -1.5257736   10.848837  0.54071428      379900
  16523.953   -1.526885   10.846158  0.54031909   381217.81
  16527.936  -1.5278979   10.844583  0.53988703   383055.56
  16531.920  -1.5288425   10.850489  0.53946393   384086.25
  16535.906  -1.5297986   10.854291  0.53900158   386231.87
  16539.531  -1.5307212   10.861339  0.53873979   387590.44
  16543.520  -1.5316817   10.861324  0.53828517   389200.97
  16547.875  -1.5327904   10.866455  0.53776175   390504.41
  16551.867  -1.5337919   10.869304  0.53734411   391526.78
  16555.863  -1.5347953   10.870699   0.5369333   393101.09
  16559.861  -1.5359313   10.866299  0.53651846   394857.34
  16563.859  -1.5369083   10.873549  0.53608082   396757.53
  16567.863  -1.5380057   10.875865  0.53566975   397972.62
  16572.230  -1.5391916   10.877904  0.53516969   399223.69
  16576.234  -1.5403055   10.874295  0.53477101   400518.69
  16580.607  -1.5415299   10.876141  0.53427523   402273.62
  16584.617  -1.5426474   10.873097  0.53382876    403832.5
  16588.992  -1.5438334    10.87516  0.53334732   405269.31
  16593.008  -1.5449186   10.876171  0.53292876   406569.06
  16597.387  -1.5460892   10.876931  0.53243095   408069.75
  16601.406   -1.547124   10.876464  0.53199735   409078.34
  16605.793  -1.5482389   10.876774  0.53149868   410188.91
  16610.182  -1.5493731   10.882052  0.53107416   412082.41
  16614.570  -1.5505465   10.881907  0.53061574   413943.84
  16618.963  -1.5516813   10.880939  0.53016096   414776.19
  16622.992  -1.5527237   10.882407  0.52972694    416086.5
  16627.389  -1.5538574   10.884286  0.52924749   417219.75
  16631.789  -1.5549765   10.885706  0.52876577   418527.94
  16636.191  -1.5561249   10.890896  0.52828245   420195.03
  16640.963  -1.5574505   10.888399  0.52776217   421458.09
  16645.369  -1.5586384   10.885853  0.52726874   423437.06
  16649.779  -1.5598444   10.885453  0.52680401      423984
  16654.189  -1.5610369   10.888407  0.52632188   424643.87
  16658.604  -1.5621794   10.889776  0.52583891   426255.66
  16663.389  -1.5634519   10.886412  0.52531114   427242.41
  16667.809  -1.5646222   10.890551  0.52489255   428984.06
  16672.598   -1.565845   10.892306  0.52439603   429472.69
  16677.021  -1.5669832   10.893358  0.52391869   430345.22
  16681.818  -1.5681903   10.893943  0.52341492   431706.72
  16686.246  -1.5692946   10.898586   0.5229411   432598.12
  16691.047  -1.5705813    10.89584  0.52240209    432750.5
  16695.480  -1.5717472   10.897035  0.52198667   434377.78
  16700.287   -1.572978   10.896007  0.52145469   434914.03
  16705.096  -1.5742285   10.898292   0.5209024   435743.19
  16709.908  -1.5754316   10.909245  0.52041386   435822.28
  16714.723  -1.5769838   10.888549   0.5198335   437414.34
  16719.170  -1.5779902   10.898222   0.5193875   439873.31
  16723.990  -1.5792363   10.901551  0.51890044   440155.22
  16728.813  -1.5804934    10.90175  0.51841354   440663.09
  16733.639    -1.58171   10.898935  0.51789468   441646.87
  16738.840  -1.5830465   10.904207  0.51734579   442653.59
  16743.670  -1.5842444   10.903417  0.51683356   443807.28
  16748.506  -1.5855036   10.903926  0.51630867   444082.87
  16753.342  -1.5866922   10.903735  0.51580972   444964.41
  16758.182  -1.5879107   10.907536  0.51532462   445923.87
  16763.396   -1.589262   10.906794  0.51475449   446384.28
  16768.244   -1.590511   10.906355  0.51421438   448046.66
  16773.094  -1.5917522   10.906523  0.51368763   448435.94
  16778.318  -1.5931334   10.906923  0.51313153   448712.16
  16783.174  -1.5943545   10.905234  0.51260466   449192.31
  16788.404  -1.5957363   10.908272  0.51205893   450222.41
  16793.641  -1.5970446   10.908486  0.51148086   450932.44
  16798.504  -1.5982027   10.906982  0.51083036   452093.41
  16803.746  -1.5996675   10.906591  0.51055678   452209.31
  16808.990  -1.6009065   10.909917  0.50994886   452676.16
  16813.863  -1.6019169   10.936556  0.50957476   451111.94
  16819.115  -1.6037991   10.881555  0.50878082   452523.66
  16824.369  -1.6047278   10.909172  0.50832792   455276.31
  16829.627  -1.6060635    10.90894   0.5077954   455572.91
  16834.887   -1.607429   10.910329  0.50726258   456022.44
  16840.152  -1.6087356   10.910602  0.50671629   456432.91
  16845.420  -1.6100952   10.910145  0.50621815   455663.31
  16850.691  -1.6114514    10.91324  0.50567939   456088.66
  16855.965  -1.6128055   10.911063  0.50511212   456575.94
  16861.244  -1.6141158   10.910249  0.50455083   456690.16
  16866.525  -1.6154408   10.911874  0.50402997   457364.28
  16872.188  -1.6168762   10.915959   0.5034396   457682.37
  16877.477  -1.6182253   10.915419  0.50294922   457459.41
  16882.768  -1.6194751   10.917257  0.50240503   457907.37
  16888.441  -1.6208316   10.914836  0.50181571   457799.28
  16893.740  -1.6221721    10.91045  0.50122723   458519.09
  16899.041    -1.62355   10.908935  0.50070224   459306.87
  16904.727  -1.6249496   10.909948  0.50011263   458909.59
  16910.416  -1.6263329   10.907045  0.49951799   458867.22
  16915.729  -1.6276488   10.911653  0.49900039   458988.81
  16921.424  -1.6289892   10.915984  0.49841638   458697.34
  16926.744  -1.6302986   10.916567  0.49790169   459882.78
  16932.447  -1.6317449   10.914258  0.49728427   459015.19
  16938.154  -1.6331431   10.913537  0.49670235   458680.53
  16943.865  -1.6345487   10.915164  0.49615582   458665.78
  16949.582  -1.6359083    10.91624   0.4956148      458656
  16955.301  -1.6372947   10.916252  0.49501323   458336.12
  16960.643  -1.6385918   10.917526   0.4945025   458250.22
  16966.371  -1.6399806   10.919828  0.49393312   458409.22
  16972.100  -1.6413486   10.920364  0.49339684   457880.19
  16977.836  -1.6427996   10.917654   0.4928033   457849.06
  16983.957  -1.6442619   10.921717  0.49224118   457772.91
  16989.699   -1.645586   10.928279  0.49166835   457083.66
  16995.447   -1.646959   10.924306  0.49108575   457061.37
  17001.197  -1.6482478   10.929362  0.49052611      457006
