# XDI/1.0 EXAFS Data Collector 1.1 AD.RGN
# Column.1: energy eV
# Column.2: mutrans
# Column.3: murefer
# Column.4: i0
# Beamline.name: SSRL 4-3
# Detector.I0: N2 15cm
# Detector.I1: N2+Ar 30cm
# Detector.If: Ar   (Lytle detector, using Rb Filter)
# Detector.I2: Ar
# Element.edge: K
# Element.symbol: Sr
# Mono.d_spacing: 1.920128
# Mono.name: Si(220)
# Mono.notes: (?) unfocussed, detuned 50%, clockwise at E=17000eV
# Sample.formula: SrSO4
# Sample.name: strontium sulfate
# Sample.prep: powder
# Sample.reference: SrCO3
# Sample.temperature: 10K
# Scan.start_time: 1995-06-16 08:48:56
# ///
#    Note: mono d_spacing is nominal!
#-------------
#   energy   mutrans       murefer      i0
  15699.933 0.084354321  -1.1321238    124056.7
  15710.044  0.08290458  -1.1335354    123370.7
  15719.844 0.081496201  -1.1350808    122655.7
  15729.982 0.080021409  -1.1366495    122081.7
  15740.136 0.078565272  -1.1381404    121528.7
  15749.973 0.077059396  -1.1394158    120831.7
  15760.152 0.075629198  -1.1410119    118430.7
  15770.016 0.074257128  -1.1424858    119293.7
  15779.891 0.072868443  -1.1438267    119121.7
  15790.109  0.07135494   -1.145304    118522.7
  15800.011 0.069956432  -1.1467663    117685.7
  15809.925 0.068563347  -1.1482408    117081.7
  15819.854 0.067099255  -1.1496439    116529.7
  15830.124 0.065639319  -1.1512529    115997.7
  15840.076 0.064173796  -1.1525274    115262.7
  15850.042 0.062787125  -1.1539501    114539.7
  15860.021 0.061365229  -1.1553835    114120.7
  15870.012 0.059978665  -1.1568985    113380.7
  15880.018 0.058522116  -1.1583303    112758.7
  15890.033  0.05714336  -1.1597473    112159.7
  15900.063  0.05571718  -1.1611761    111535.7
  15910.108 0.054333264  -1.1626073    110856.7
  15920.164 0.052914709  -1.1641285    110236.7
  15929.896 0.051580029  -1.1655643    109652.7
  15939.978   0.0502067  -1.1670016    109103.7
  15950.073 0.048771622  -1.1684462    108410.7
  15959.844 0.047470119  -1.1697871    107773.7
  15969.964 0.046074888     -1.1713    107029.7
  15980.097 0.044749883  -1.1727061    106561.7
  15989.906 0.043489962  -1.1741716    105820.7
  16000.064 0.042109616  -1.1756127    105358.7
  16009.897 0.040875588  -1.1770419    104802.7
  16020.082 0.039551204  -1.1785159    104140.7
  16029.942 0.038379713  -1.1798716    103485.7
  16040.152 0.037114851  -1.1813222    102855.7
  16050.036 0.036034439  -1.1827025    102322.7
  16059.933 0.034970537  -1.1841682    101771.7
  16069.841 0.034051924  -1.1855538    100974.7
  16080.104 0.033279516  -1.1870489    100345.7
  16090.039 0.032870553  -1.1884542   99841.703
  16099.984 0.033067959  -1.1898174   99101.703
  16109.943 0.034484413  -1.1912471   98549.703
  16119.917 0.039359461   -1.192529   97823.703
  16121.293 0.040463264  -1.1926067   97804.703
  16122.670 0.041748455  -1.1928268   97764.703
  16123.702 0.042928811  -1.1928767   97797.703
  16125.079 0.044979028  -1.1930365   97595.703
  16126.112 0.046878363  -1.1931631   97594.703
  16127.490 0.050131812  -1.1933395   97400.703
  16128.867 0.054509792  -1.1936778   97406.703
  16129.901 0.058583767  -1.1937807   97353.703
  16131.278 0.066731092  -1.1937901   97322.703
  16132.657 0.079669614  -1.1939385   97187.703
  16133.690 0.093919442  -1.1940062   97089.703
  16135.069   0.1216903  -1.1936746   97021.703
  16136.104  0.15002379  -1.1936874   97015.703
  16137.483  0.21035577  -1.1932352   97032.703
  16138.861  0.30108887   -1.193303   96848.703
  16139.897  0.38008203  -1.1933502   96802.703
  16141.276  0.50036489  -1.1932205   96899.703
  16142.657  0.63610498  -1.1933627   96518.703
  16143.692  0.73459428  -1.1934669   96608.703
  16145.073  0.83170341  -1.1943302   96527.703
  16146.108  0.85281525  -1.1948486   96489.703
  16147.490  0.80150966  -1.1955723   96353.703
  16148.871  0.68957827   -1.195731   96130.703
  16149.907  0.60529236  -1.1956324   96185.703
  16151.289  0.51304326  -1.1956407   96171.703
  16152.670  0.45676957  -1.1958224   96097.703
  16153.707  0.43657736  -1.1958472   95954.703
  16155.090  0.43323815  -1.1958654   191735.41
  16155.779  0.43814608  -1.1959611   191626.36
  16156.473  0.44595941  -1.1960797   191653.25
  16157.162  0.45534342  -1.1963488   191910.05
  16157.854  0.46425914  -1.1964722   191822.78
  16158.547   0.4715346  -1.1965859   191782.44
  16159.237   0.4765504  -1.1968159   191788.02
  16160.274  0.47916871  -1.1969289   191928.52
  16160.968  0.47821335  -1.1970451   191892.94
  16161.659  0.47599099  -1.1971757    192129.3
  16162.695  0.47144608  -1.1972613   192085.56
  16163.389  0.46891419  -1.1973783   192426.75
  16164.426   0.4662303  -1.1975949   192443.87
  16165.465  0.46628435  -1.1975468   192449.91
  16166.157  0.46800867  -1.1976124   192724.87
  16167.195  0.47399292  -1.1976735   192702.77
  16168.234  0.48384711  -1.1977586   192818.58
  16169.271  0.49684096  -1.1978753   192104.31
  16170.311  0.51247558  -1.1981123   192284.97
  16171.349   0.5293831  -1.1982267   192646.55
  16172.388  0.54738342  -1.1983837   193267.05
  16173.428   0.5658564  -1.1985468   193640.47
  16174.466  0.58394052  -1.1986555   194632.83
  16175.506  0.59963744  -1.1987892   195236.09
  16176.545  0.61109311  -1.1990551    195631.3
  16177.932  0.61439188   -1.199431   195977.41
  16178.971  0.60605948  -1.1994795   196480.45
  16180.012  0.58870368  -1.1995762   196862.42
  16181.399  0.55791146  -1.1996754   197076.31
  16182.440  0.53588411  -1.1997086   197628.12
  16183.826  0.51281268  -1.1997997   198167.86
  16185.214  0.50237255  -1.1999732   198605.52
  16186.254  0.50309858  -1.2000767   199165.09
  16187.644   0.5140579  -1.2002272   199607.61
  16189.030  0.53260866  -1.2004553   200250.03
  16190.419  0.55243218  -1.2008434   200975.39
  16191.809  0.56626187  -1.2010591   201691.66
  16193.197  0.56796473  -1.2014182   202186.86
  16194.587  0.55679036  -1.2016776   202853.98
  16195.976  0.53684448  -1.2017956   203502.03
  16197.366  0.51401405  -1.2020346      204128
  16198.755  0.49336201  -1.2021738   204761.89
  16200.493  0.47466306  -1.2023731    205444.7
  16201.884  0.46666463  -1.2025097   206363.44
  16203.274  0.46222422   -1.202819   206896.09
  16205.013  0.45839581  -1.2029475   207562.69
  16206.405  0.45533404  -1.2032767   208338.19
  16208.145  0.45171247  -1.2033675   209415.62
  16209.884   0.4515647  -1.2035665   210083.97
  16211.276  0.45595953  -1.2037134   210771.25
  16213.016  0.46885327  -1.2038277   211526.45
  16214.757  0.48784774  -1.2041574   212647.58
  16216.499  0.50779532  -1.2044355   213387.62
  16218.240  0.52482307  -1.2047093   214332.59
  16219.981  0.53641636  -1.2050463   215205.48
  16221.725  0.54261952  -1.2052472    215983.3
  16223.468  0.54433673  -1.2055137   216740.05
  16225.210  0.54414223   -1.205728    217584.7
  16226.954  0.54521992   -1.205906    218736.3
  16228.698  0.54885043  -1.2061676    219577.8
  16230.792   0.5525062  -1.2064752   220426.23
  16232.535  0.54994111  -1.2067312   221139.59
  16234.281  0.54038955  -1.2069407   221607.87
  16236.376  0.52279476  -1.2072976   221589.08
  16238.122  0.50842574  -1.2075097    222317.2
  16240.217  0.49458098  -1.2078214   223037.25
  16242.313  0.48447993   -1.208175   223604.22
  16244.061  0.47830258   -1.208416   224965.12
  16246.159  0.47272788  -1.2087267   226457.94
  16248.257  0.46905372  -1.2089544   228416.67
  16250.354  0.46577424  -1.2091773   230893.34
  16252.454  0.46173894  -1.2094889   232982.94
  16254.553  0.45774301  -1.2097844   234694.44
  16256.653   0.4563713  -1.2100915   236308.87
  16258.753  0.45908615  -1.2103822   237487.23
  16260.855  0.46443661  -1.2105784   238566.52
  16262.957  0.46982747  -1.2107573   239709.72
  16265.059  0.47433472  -1.2110683   240455.86
  16267.162  0.47928678  -1.2113849   241399.91
  16269.616   0.4876187  -1.2117297   241786.87
  16271.719  0.49619759  -1.2121103   242991.78
  16274.174  0.50575419  -1.2124345   243990.59
  16276.280  0.51151263  -1.2127743   245543.34
  16278.736  0.51669028  -1.2130677   247192.02
  16280.844   0.5198414  -1.2133218   249275.59
  16283.301  0.51921749  -1.2136944   250957.11
  16285.760  0.51182662  -1.2140039   252602.55
  16288.220  0.49987593  -1.2143641   254045.91
  16290.328  0.48872091  -1.2146448    255324.2
  16292.790   0.4759602  -1.2149692   256670.41
  16295.252   0.4660183  -1.2153019   258194.53
  16297.715  0.46121032  -1.2155946   259732.59
  16300.179  0.46118627  -1.2159557   261116.56
  16302.994  0.46337951   -1.216348   262504.47
  16305.459  0.46532602  -1.2166684   264077.28
  16307.925  0.46825779  -1.2169949   265096.03
  16310.392  0.47310611  -1.2172857   266946.69
  16313.211  0.47925123  -1.2177085   268426.28
  16315.680  0.48233201    -1.21809   270051.81
  16318.148  0.48072374  -1.2184324   271489.25
  16320.972  0.47293663  -1.2188507   272910.62
  16323.442   0.4651483  -1.2191548   274348.91
  16326.268  0.46024148  -1.2195386   275728.09
  16329.092   0.4624225  -1.2199536   277581.25
  16331.564  0.46810906  -1.2202638   278806.28
  16334.393  0.47463863  -1.2206395   280391.28
  16337.221  0.47823616   -1.221074   282182.19
  16340.050  0.47954285  -1.2214857      283683
  16342.881  0.48118317  -1.2219023   285521.75
  16345.713  0.48450524  -1.2222919   287047.44
  16348.544  0.48757961  -1.2227177   288502.03
  16351.378  0.48713401  -1.2231121   289876.53
  16354.211  0.48183501   -1.223448   291524.97
  16357.047   0.4733065  -1.2239335   292984.34
  16360.238  0.46270602  -1.2243672   294833.62
  16363.076  0.45394757  -1.2248159   296370.84
  16365.914  0.44721812  -1.2252362   297870.97
  16369.107  0.44541421  -1.2256098   299537.03
  16371.948  0.44869171  -1.2260749      301161
  16375.146  0.45463608  -1.2264589   302787.91
  16377.989  0.45896336  -1.2268903   304703.75
  16381.188  0.46096071  -1.2273582    306216.5
  16384.389  0.46070795  -1.2278192   307727.16
  16387.234  0.46120086  -1.2281799   309489.78
  16390.438  0.46458881  -1.2286444   311109.28
  16393.641  0.46890822  -1.2290384   312867.72
  16396.848  0.47029093  -1.2295168   314673.09
  16400.055  0.46762414  -1.2299672   316466.37
  16403.262  0.46246223   -1.230404   317940.59
  16406.471  0.45761703  -1.2308415   319539.75
  16409.684  0.45368659  -1.2312763   321250.81
  16412.895  0.45068559  -1.2317367   323097.78
  16416.107  0.44952801  -1.2321849   324890.69
  16419.320  0.45058565  -1.2326018   326364.53
  16422.895  0.45314856   -1.233109   327913.28
  16426.111  0.45412171  -1.2335919   329408.94
  16429.332  0.45167753  -1.2340142   331501.56
  16432.908  0.44489689  -1.2345384   332775.06
  16436.129  0.43839133  -1.2349741   334802.53
  16439.711  0.43486477  -1.2354522   336309.87
  16443.291  0.43517015  -1.2360022   338053.19
  16446.518  0.43565629  -1.2364225   339775.41
  16450.104  0.43710563  -1.2368886   341662.53
  16453.689  0.44256249  -1.2373614   343291.59
  16457.277  0.45123652  -1.2378783   344764.59
  16460.510  0.45982523  -1.2383063    346839.5
  16464.100  0.46658646  -1.2388262   347957.31
  16467.695  0.46549216  -1.2393531   349780.06
  16471.289  0.45692093  -1.2398905   351660.75
  16474.885   0.4457165  -1.2403709   353825.34
  16478.842  0.43486288  -1.2408917   355109.87
  16482.441  0.42909371  -1.2413641   356991.31
  16486.043  0.42779003  -1.2418238   358857.69
  16489.646  0.42852668  -1.2423255      360786
  16493.611  0.42897643  -1.2428652   362006.22
  16497.217  0.42878652  -1.2433619   363526.34
  16500.826  0.42895172    -1.24383   365152.41
  16504.797  0.43139247  -1.2443744   366458.41
  16508.406  0.43401976  -1.2448876   368999.31
  16512.381  0.43455981  -1.2454175   370214.16
  16516.357  0.43275986  -1.2459758   372434.91
  16519.975  0.43100583   -1.246459   373692.59
  16523.953  0.42927259  -1.2470438   375536.19
  16527.936  0.42798381  -1.2475457   377171.72
  16531.920  0.42769877  -1.2480735   378928.16
  16535.906  0.42925693  -1.2486107   380545.53
  16539.531  0.43170387  -1.2491087   382586.84
  16543.520   0.4322396  -1.2496902   384345.06
  16547.875  0.43113592  -1.2502526   385637.19
  16551.867  0.42987492  -1.2508195   387103.28
  16555.863  0.42737381  -1.2513952   388353.25
  16559.861   0.4248464  -1.2519235   389711.16
  16563.859  0.42279663  -1.2524143      391947
  16567.863  0.42026796  -1.2530045   393165.75
  16572.230  0.41761493  -1.2536004   394718.44
  16576.234  0.41478301  -1.2541269   396448.06
  16580.607  0.41081109  -1.2547156   397816.59
  16584.617  0.40874874  -1.2552848   399523.03
  16588.992  0.40937296  -1.2558213   401491.41
  16593.008  0.41224749  -1.2563537   402860.72
  16597.387  0.41549224  -1.2569507   404209.94
  16601.406  0.41687267  -1.2574808   405459.06
  16605.793  0.41651095  -1.2580344   406623.16
  16610.182  0.41512145  -1.2586191   408691.12
  16614.570  0.41435635  -1.2591547   410623.06
  16618.963  0.41355256  -1.2597294   412110.87
  16622.992  0.41258682  -1.2602736   413421.66
  16627.389  0.41159595  -1.2608329   414358.34
  16631.789  0.40830659   -1.261436   416527.94
  16636.191  0.40412509   -1.262053   417484.47
  16640.963  0.40020943  -1.2627054   418912.94
  16645.369  0.39820412  -1.2632606   421154.31
  16649.779  0.39965887  -1.2638759   422072.59
  16654.189  0.40342418  -1.2644698   424090.84
  16658.604  0.40724083  -1.2650271   425529.97
  16663.389  0.40817073  -1.2656411   426853.06
  16667.809    0.404763  -1.2662137   428203.03
  16672.598  0.39990154  -1.2668362   429072.97
  16677.021  0.39639061  -1.2674408   430231.81
  16681.818  0.39400875  -1.2681068   431772.56
  16686.246  0.39230171  -1.2686313   433196.25
  16691.047  0.39013344  -1.2692767   434312.87
  16695.480  0.38948651  -1.2698145   435530.41
  16700.287  0.39113002  -1.2703924   436589.84
  16705.096  0.39427797  -1.2710062   437656.22
  16709.908  0.39599251  -1.2715593   438457.53
  16714.723  0.39503236  -1.2721412   439296.75
  16719.170  0.39241721  -1.2727127   441700.91
  16723.990  0.38874382  -1.2733287   442862.97
  16728.813  0.38622089  -1.2739594   444141.97
  16733.639  0.38447791  -1.2745678   445322.91
  16738.840   0.3831553  -1.2752188   445811.75
  16743.670  0.38343455  -1.2757888    447593.5
  16748.506    0.383081    -1.27643   448436.19
  16753.342  0.38279421  -1.2770095   449759.81
  16758.182  0.38250643  -1.2775971   450919.34
  16763.396  0.38253632  -1.2782291   452089.81
  16768.244  0.38267893  -1.2788467   453210.19
  16773.094  0.38048386  -1.2794598    454137.5
  16778.318  0.37723264  -1.2801544   454923.72
  16783.174  0.37505277  -1.2806986   455898.87
  16788.404  0.37356801  -1.2813354   456869.94
  16793.641  0.37275419  -1.2820744   457493.94
  16798.504  0.37165374  -1.2827427   458911.87
  16803.746  0.36988117  -1.2834254   459618.72
  16808.990  0.36852724   -1.284074   460109.47
  16813.863  0.36915746  -1.2846816   460516.16
  16819.115  0.37130237  -1.2853201   459448.78
  16824.369  0.37169525  -1.2859583   463509.31
  16829.627  0.36953105  -1.2865382   464041.78
  16834.887  0.36656654   -1.287191   464674.16
  16840.152  0.36499039  -1.2878374   465439.47
  16845.420   0.3653659  -1.2884697   466333.72
  16850.691  0.36576734   -1.289165   467456.84
  16855.965  0.36427297  -1.2897877   467783.94
  16861.244  0.36101142  -1.2904057   468402.94
  16866.525  0.35811514  -1.2910167   468923.87
  16872.188  0.35619011  -1.2917242   469789.72
  16877.477  0.35573449   -1.292389   470460.47
  16882.768  0.35587255  -1.2930315   470939.16
  16888.441   0.3549198  -1.2937151   471234.78
  16893.740  0.35369097  -1.2943834   472111.31
  16899.041  0.35347533   -1.295017   472978.78
  16904.727  0.35312073  -1.2957162   473757.19
  16910.416  0.35248931  -1.2963969    474201.5
  16915.729  0.35130008  -1.2970659   474678.72
  16921.424  0.34996221  -1.2977512   475433.87
  16926.744  0.34858736  -1.2984025   475425.97
  16932.447  0.34687823  -1.2990869   476529.97
  16938.154  0.34517173    -1.29979   477132.87
  16943.865  0.34459589  -1.3005158   477507.72
  16949.582  0.34420942  -1.3011872    477701.5
  16955.301  0.34408095  -1.3018842   477767.19
  16960.643  0.34429721  -1.3025121   478492.81
  16966.371   0.3434105  -1.3032079   479275.37
  16972.100  0.34132535   -1.303907   479493.81
  16977.836  0.33833888  -1.3046313   479525.22
  16983.957  0.33540616  -1.3053645   479741.53
  16989.699  0.33352531  -1.3060654   479555.75
  16995.447   0.3321085   -1.306773   480477.91
  17001.197  0.33170165  -1.3074465      480679
