# XDI/1.0 EXAFS Data Collector 1.1 AD.RGN
# Column.1: energy eV
# Column.2: mutrans
# Column.3: mufluor
# Column.4: murefer
# Column.5: i0
# Beamline.name: SSRL 4-3
# Detector.I0: N2 15cm
# Detector.I1: N2+Ar 30cm
# Detector.If: Ar   (Lytle detector, using Rb Filter)
# Detector.I2: Ar
# Element.edge: K
# Element.symbol: Sr
# Mono.d_spacing: 1.920128
# Mono.name: Si(220)
# Mono.notes: (?) unfocussed, detuned 50%, clockwise at E=17000eV
# Sample.formula: SrSO4
# Sample.name: strontium sulfate
# Sample.prep: powder
# Sample.reference: SrCO3
# Sample.temperature: room temperature
# Scan.start_time: 1995-06-14 22:11:02
# ///
#    Note: mono d_spacing is nominal!
#-------------
#   energy   mutrans      mufluor    murefer      i0
  15699.933  -1.6775699  0.76765846  0.55752963   139689.59
  15710.044  -1.6799179   0.7597993  0.55637535   138882.59
  15719.844  -1.6820256  0.75075417  0.55534386   138167.59
  15729.982  -1.6841098  0.74149284  0.55426437   137213.59
  15740.136  -1.6865982   0.7333416  0.55307005   136585.59
  15749.973  -1.6886423  0.72338983  0.55208005   135720.59
  15760.152  -1.6910295  0.71547552  0.55088578   133312.59
  15770.016  -1.6934343  0.70574886  0.55005919   134336.59
  15779.891  -1.6952837  0.69709716  0.54883374   133840.59
  15790.109  -1.6975177  0.68802425  0.54776163   133028.59
  15800.011  -1.6996572  0.67734143  0.54664573   132321.59
  15809.925  -1.7020042  0.67000084  0.54553032   131617.59
  15819.854  -1.7040053  0.66031915  0.54452803    130786.6
  15830.124  -1.7064571  0.65110391  0.54337362    130043.6
  15840.076  -1.7085862  0.64158412  0.54231769    129379.6
  15850.042  -1.7107903  0.63428893  0.54122961    128488.6
  15860.021  -1.7128568  0.62704934  0.54012814    127734.6
  15870.012  -1.7151199  0.61855889  0.53899697    127051.6
  15880.018  -1.7174664  0.61150792  0.53785051    126359.6
  15890.033   -1.719583  0.60316484   0.5367981    125673.6
  15900.063   -1.721788  0.59641759  0.53574479    124905.6
  15910.108  -1.7239468  0.58941821  0.53464894    124181.6
  15920.164  -1.7260933  0.58309661  0.53355321    123363.6
  15929.896  -1.7282583  0.57575713  0.53244747    122570.6
  15939.978    -1.73046  0.56906148  0.53138404    121856.6
  15950.073   -1.732688  0.56447036  0.53022658    121010.6
  15959.844  -1.7346668  0.55856772  0.52919205    120255.6
  15969.964   -1.736739  0.55475553  0.52798751    119569.6
  15980.097  -1.7390805  0.55170975  0.52697686    118857.6
  15989.906  -1.7409971  0.54709447  0.52591176    117924.6
  16000.064  -1.7433006     0.54598  0.52479732    117346.6
  16009.897  -1.7453151  0.54430511  0.52373835    116636.6
  16020.082  -1.7475649  0.54383729  0.52260471    115725.6
  16029.942  -1.7494433  0.54509396   0.5215273    115150.6
  16040.152  -1.7514645   0.5478414   0.5204434    114348.6
  16050.036  -1.7533805  0.55304554  0.51942661    113630.6
  16059.933  -1.7552403  0.56043041  0.51836313    112916.6
  16069.841  -1.7569832   0.5734335   0.5172992    112143.6
  16080.104  -1.7586183  0.59066742  0.51618055    111358.6
  16090.039  -1.7599381   0.6188392  0.51525557    110574.6
  16099.984  -1.7607319  0.66674383  0.51439752    110112.6
  16109.943  -1.7603491  0.75394289  0.51376794    109233.6
  16119.917  -1.7568034  0.94807266  0.51381936    108607.6
  16121.293  -1.7560092  0.98236531  0.51393651    108462.6
  16122.670  -1.7548808   1.0297703  0.51414381    108406.6
  16123.702  -1.7539089   1.0715563  0.51428907    108240.6
  16125.079  -1.7521695   1.1390546  0.51456902    108254.6
  16126.112   -1.750515   1.2008712  0.51499294    108324.6
  16127.490  -1.7476209   1.3031276  0.51571308    108110.6
  16128.867  -1.7438464   1.4374008  0.51677741    107988.6
  16129.901    -1.74025   1.5664294  0.51798826    107911.6
  16131.278  -1.7331676   1.8081283  0.52075694    107823.6
  16132.657   -1.722513   2.1760808   0.5258264    107738.6
  16133.690  -1.7106762   2.5667873  0.53132644    107713.6
  16135.069   -1.685294   3.3942871  0.54181921    107500.6
  16136.104  -1.6583663   4.2433333  0.55075347    107496.6
  16137.483  -1.6038138   5.8907636  0.56424379    107333.6
  16138.861  -1.5294105   8.0025829  0.57963689    107266.6
  16139.897   -1.466418   9.6817757  0.59183813    107091.6
  16141.276  -1.3786769   11.863122  0.60802541    107010.6
  16142.657   -1.312128   12.978323  0.62069624    106977.6
  16143.692  -1.2855479   12.985868  0.62621998    106915.6
  16145.073  -1.2811635   13.010468  0.62792901    106713.6
  16146.108  -1.2983454   13.009914  0.62523843    106717.6
  16147.490  -1.3363098   12.809714  0.61721716    106644.6
  16148.871  -1.3747227   11.847882   0.6073993    106610.6
  16149.907  -1.3970597   11.291707  0.59997356    106453.6
  16151.289  -1.4176934   10.784424  0.59096555    106355.6
  16152.670   -1.428288   10.527901  0.58434137    106182.6
  16153.707  -1.4324233   10.433982   0.5806938    106280.6
  16155.090  -1.4361434    10.34591  0.57745663    211947.2
  16155.779  -1.4376015   10.316083  0.57653995   211837.17
  16156.473   -1.439083   10.282849  0.57570587   211717.08
  16157.162  -1.4404847   10.247718  0.57519562   211430.92
  16157.854  -1.4416745   10.223073  0.57478804    211447.7
  16158.547  -1.4425779   10.207903  0.57446205   211603.41
  16159.237  -1.4431427   10.201646   0.5741352   212006.06
  16160.274  -1.4431062   10.211917  0.57381874   211972.66
  16160.968  -1.4425465   10.234217  0.57372903   212140.19
  16161.659  -1.4416658   10.263515   0.5737555   212188.64
  16162.695  -1.4396195   10.325579  0.57406434   212106.05
  16163.389  -1.4379978   10.369701   0.5743951   212394.39
  16164.426  -1.4348821   10.463377  0.57535489   212623.66
  16165.465  -1.4312712   10.565809   0.5763442   212638.87
  16166.157  -1.4289899   10.637738   0.5770508   212543.02
  16167.195  -1.4253909   10.743936  0.57805628   212151.11
  16168.234  -1.4229446    10.79977  0.57886353   212288.12
  16169.271  -1.4219999   10.817037  0.57983093   212661.09
  16170.311  -1.4222855   10.805399  0.58084659   212967.98
  16171.349  -1.4233149   10.787918  0.58212968   213275.81
  16172.388  -1.4241399   10.782665  0.58357672   213894.59
  16173.428  -1.4238238   10.804488  0.58511975    214778.3
  16174.466  -1.4226717   10.850874  0.58667725   215281.94
  16175.506  -1.4207658   10.906746  0.58788236   215882.52
  16176.545  -1.4182675     10.9781  0.58905625   216261.05
  16177.932  -1.4142758    11.08613  0.59017043    216387.5
  16178.971  -1.4112284   11.177208  0.59077187   216613.89
  16180.012  -1.4082298   11.259637  0.59097964   217351.22
  16181.399   -1.404911    11.35174  0.59082232   217768.48
  16182.440  -1.4034814   11.391193  0.59044238   218155.69
  16183.826  -1.4033754   11.397755  0.58961917   218799.83
  16185.214  -1.4055105    11.35187  0.58870296   219207.91
  16186.254  -1.4083778   11.284556  0.58799131   219769.92
  16187.644  -1.4133349   11.169911  0.58700063   220634.87
  16189.030  -1.4183528   11.054527  0.58574532   221132.75
  16190.419  -1.4225223   10.960764  0.58436928   221879.58
  16191.809  -1.4255148   10.897147  0.58292204   222239.34
  16193.197  -1.4273751   10.856278  0.58142124   222903.05
  16194.587  -1.4285098   10.836243     0.58004   223588.67
  16195.976  -1.4297042   10.816813  0.57894079   224255.25
  16197.366  -1.4311507   10.788189   0.5778241   225085.75
  16198.755  -1.4329139   10.757949  0.57692679    226085.2
  16200.493  -1.4351692   10.706051  0.57590573   226447.59
  16201.884  -1.4366125     10.6804  0.57518907   227233.91
  16203.274  -1.4376629   10.667239  0.57457511   228048.17
  16205.013   -1.438703   10.656751  0.57417376   228997.36
  16206.405  -1.4394281   10.647456  0.57406263   229824.48
  16208.145  -1.4406064   10.628981  0.57432103   230576.56
  16209.884  -1.4420565   10.605004  0.57479406   231409.56
  16211.276  -1.4432097   10.587268  0.57529241    232216.5
  16213.016  -1.4443749   10.570136  0.57584573   233120.39
  16214.757  -1.4451273   10.565471  0.57645965    234106.2
  16216.499  -1.4453033   10.575356  0.57682919   234834.95
  16218.240  -1.4449866   10.598522  0.57705094   235933.64
  16219.981  -1.4443304   10.628686  0.57704652   236490.27
  16221.725  -1.4433163   10.669366  0.57705943   237451.83
  16223.468  -1.4418182    10.72799  0.57688408   238503.33
  16225.210  -1.4399478   10.791913  0.57675347   239027.77
  16226.954  -1.4377201   10.872282  0.57659982   240094.14
  16228.698  -1.4355997   10.953155  0.57639001   240648.45
  16230.792  -1.4336357   11.029214  0.57634356    241230.7
  16232.535  -1.4328933   11.064312  0.57632128   241862.89
  16234.281   -1.433184   11.064888   0.5763087   242334.02
  16236.376   -1.434719   11.018997  0.57617717   243366.08
  16238.122  -1.4369372   10.956172   0.5759618   244601.06
  16240.217  -1.4404657   10.847749  0.57552791      246019
  16242.313  -1.4443536   10.741736  0.57494353   247499.87
  16244.061  -1.4473886   10.666564  0.57434694   249115.67
  16246.159  -1.4506773   10.597198  0.57353208   250943.42
  16248.257  -1.4532605   10.559021  0.57271579   252602.11
  16250.354  -1.4550562   10.553704  0.57197334   254611.72
  16252.454  -1.4561293   10.556495  0.57126701   256456.28
  16254.553  -1.4566517    10.57727  0.57064161   257781.77
  16256.653  -1.4567189   10.603962  0.57010239   259129.19
  16258.753  -1.4567513   10.620323  0.56965963   260504.56
  16260.855  -1.4571291   10.632137   0.5693356   261394.86
  16262.957  -1.4577757   10.635733  0.56909643   262057.11
  16265.059  -1.4583685   10.631327  0.56879741   263253.28
  16267.162  -1.4589537   10.618941  0.56859776   264411.41
  16269.616  -1.4596236   10.606295  0.56836709   265839.44
  16271.719  -1.4601503   10.594866  0.56815555   266929.44
  16274.174  -1.4607207   10.589206  0.56797309   268409.34
  16276.280  -1.4611622   10.591516  0.56778624   270122.22
  16278.736   -1.461553   10.610909  0.56771899      271531
  16280.844  -1.4617125    10.62596  0.56764174   273340.75
  16283.301  -1.4618439   10.649538  0.56778353   275198.41
  16285.760  -1.4618447   10.674195  0.56788892   276849.03
  16288.220  -1.4618605   10.692818  0.56775981   278450.56
  16290.328   -1.462061   10.696579  0.56749775   279739.06
  16292.790   -1.462484   10.705339  0.56709358   281552.47
  16295.252  -1.4631451   10.710156  0.56660618   282955.84
  16297.715  -1.4638494   10.702816  0.56620821   284398.12
  16300.179  -1.4645644   10.705527  0.56593146   285590.34
  16302.994  -1.4651876    10.70995  0.56583384   287157.53
  16305.459  -1.4655875   10.719641  0.56583139   288668.62
  16307.925  -1.4662171   10.724203   0.5657332   290239.69
  16310.392  -1.4673724   10.713419  0.56555501   291926.66
  16313.211  -1.4691284    10.67907  0.56527634   293333.56
  16315.680  -1.4705219   10.668241  0.56501374   294987.41
  16318.148  -1.4716357   10.654271  0.56463655   296664.22
  16320.972  -1.4727354   10.647003  0.56415188   298209.94
  16323.442  -1.4734825   10.645408  0.56369985   300096.59
  16326.268  -1.4741291   10.652801   0.5631317   301476.19
  16329.092  -1.4744777   10.664529  0.56258098   303365.72
  16331.564  -1.4746674   10.674189  0.56214257   304858.22
  16334.393   -1.475142   10.687392  0.56163027   306168.62
  16337.221   -1.475931   10.686718   0.5612099   307815.97
  16340.050  -1.4768918   10.681871  0.56073034   309338.25
  16342.881  -1.4778931   10.677899  0.56025541   311018.47
  16345.713  -1.4787845   10.678514  0.55983678   312977.62
  16348.544  -1.4797033   10.676025  0.55962362   314417.72
  16351.378  -1.4806192   10.677075  0.55951346   316359.75
  16354.211  -1.4814912    10.67617  0.55925616   317978.72
  16357.047  -1.4822928   10.675135  0.55913009   319688.62
  16360.238  -1.4831513   10.679631  0.55901615   321181.47
  16363.076  -1.4838339   10.681889  0.55889716   323048.25
  16365.914  -1.4845542   10.683407  0.55872165   324820.97
  16369.107  -1.4853601   10.687141  0.55845257   326710.62
  16371.948  -1.4860934   10.690497  0.55815879   328384.22
  16375.146  -1.4869307   10.695097  0.55773803   330045.75
  16377.989  -1.4877385   10.690486  0.55734199   331815.22
  16381.188  -1.4887599   10.691893  0.55682166   333111.62
  16384.389  -1.4897138   10.689015   0.5563362   334678.97
  16387.234  -1.4905507   10.689009  0.55586151   336188.22
  16390.438  -1.4914404   10.689838  0.55539318   337998.44
  16393.641   -1.492345   10.692899  0.55492906   339925.59
  16396.848   -1.493243   10.692196  0.55451215   341649.69
  16400.055  -1.4941334   10.692675  0.55412565   343349.72
  16403.262  -1.4951654   10.691478  0.55378867   345044.66
  16406.471  -1.4962666   10.684149  0.55342863   346678.56
  16409.684  -1.4973392   10.681023    0.553123   348316.41
  16412.895  -1.4983712   10.678834  0.55280843   350594.16
  16416.107  -1.4991901   10.682313  0.55241594   352160.87
  16419.320  -1.5000035   10.686279  0.55203728   353518.53
  16422.895  -1.5009546   10.689167  0.55157823   355430.09
  16426.111  -1.5017823   10.694309  0.55108475   357456.62
  16429.332  -1.5027046   10.694035  0.55066213   359445.09
  16432.908  -1.5038298   10.695418  0.55020853   361232.47
  16436.129  -1.5048433   10.688145  0.54976883   363060.81
  16439.711  -1.5059662   10.686599  0.54929775   365003.06
  16443.291  -1.5069635   10.683522  0.54892122   366205.28
  16446.518  -1.5078483   10.682624  0.54858709   368093.41
  16450.104  -1.5087824   10.690607  0.54827179    370275.5
  16453.689  -1.5096125   10.695113  0.54796867    372104.5
  16457.277   -1.510518   10.700007  0.54764357   373700.47
  16460.510   -1.511347   10.700254  0.54736656   375140.34
  16464.100  -1.5122127   10.707737  0.54700267   376827.19
  16467.695  -1.5130809   10.708538  0.54659903   378573.94
  16471.289  -1.5140278   10.709876  0.54616295   380373.66
  16474.885  -1.5149285   10.712233  0.54575412   382686.28
  16478.842  -1.5159408   10.715413  0.54527163   383776.84
  16482.441   -1.516845   10.720117   0.5448371   385792.37
  16486.043  -1.5177381   10.720244  0.54439046   387303.81
  16489.646  -1.5186683   10.722392  0.54389823   389060.19
  16493.611  -1.5197581   10.721443  0.54340239    390777.5
  16497.217  -1.5207459   10.723815  0.54297099   392697.78
  16500.826  -1.5217588   10.720953  0.54253727   395272.97
  16504.797  -1.5229125   10.719868  0.54204012   395455.09
  16508.406  -1.5238994   10.716099  0.54161918   397314.16
  16512.381  -1.5250698   10.715192  0.54119653   400018.19
  16516.357  -1.5262595   10.708658  0.54072911   400953.12
  16519.975   -1.527269   10.706753  0.54027978      402877
  16523.953  -1.5283222   10.705332  0.53984696   404361.81
  16527.936  -1.5293987   10.705898  0.53940671   406140.56
  16531.920  -1.5303544   10.709205  0.53899929   407942.25
  16535.906  -1.5313153   10.715324   0.5386049   409499.87
  16539.531  -1.5321836   10.719167  0.53818295   411332.44
  16543.520  -1.5331812    10.72352   0.5377621   413018.97
  16547.875  -1.5343051   10.722117  0.53723075   413821.41
  16551.867  -1.5353099   10.726958  0.53679861   415181.78
  16555.863  -1.5363203   10.727353  0.53633905   416046.09
  16559.861  -1.5374055   10.722569  0.53587683   418038.34
  16563.859  -1.5383727   10.730847  0.53544585   420331.53
  16567.863  -1.5394972   10.729753  0.53501626   421197.62
  16572.230  -1.5406923    10.73168  0.53456192   423305.69
  16576.234    -1.54179    10.73116  0.53412114   424668.69
  16580.607  -1.5430657   10.733046  0.53359003   426433.62
  16584.617  -1.5442351    10.72969  0.53317574    428172.5
  16588.992  -1.5454739   10.728539  0.53266011   429092.31
  16593.008  -1.5465657   10.730008  0.53218803   431095.06
  16597.387  -1.5477202   10.732479  0.53169913   432824.75
  16601.406   -1.548808   10.729609  0.53127662   433971.34
  16605.793  -1.5499236   10.728576  0.53078221   435263.91
  16610.182  -1.5510398   10.733191  0.53034045   436958.41
  16614.570  -1.5522178   10.734216  0.52987474   438761.84
  16618.963  -1.5533864   10.734331  0.52941181   439409.19
  16622.992  -1.5544366   10.733539  0.52898797    440079.5
  16627.389  -1.5555926    10.73474  0.52848476   442053.75
  16631.789  -1.5567432   10.732552  0.52799364   443433.94
  16636.191  -1.5578895   10.734452  0.52750982   445154.03
  16640.963  -1.5592292   10.731083  0.52695824   446488.09
  16645.369  -1.5604169    10.72987  0.52648043   447518.06
  16649.779  -1.5615617   10.731847  0.52597871      449210
  16654.189  -1.5627037   10.730467  0.52549701   450805.87
  16658.604   -1.563886   10.731586  0.52504276   451942.66
  16663.389  -1.5652009   10.731269  0.52455067   452123.41
  16667.809  -1.5663387   10.734186  0.52411372   453531.06
  16672.598  -1.5675752   10.732021  0.52360972   455014.69
  16677.021  -1.5687081   10.734708  0.52317457   455919.22
  16681.818   -1.569965   10.730281  0.52262255   456087.72
  16686.246  -1.5710565   10.731229  0.52215989   457659.12
  16691.047  -1.5722924   10.731939  0.52163956    458733.5
  16695.480   -1.573468   10.734275     0.52121   459841.78
  16700.287  -1.5746169   10.734815  0.52069664   460799.03
  16705.096  -1.5758721   10.734774  0.52016233   461710.19
  16709.908  -1.5770368    10.74359  0.51968708   461866.28
  16714.723  -1.5785497   10.726976  0.51912358   463084.34
  16719.170  -1.5795503   10.735825  0.51868872   464825.31
  16723.990   -1.580763   10.736788  0.51814817   466011.22
  16728.813  -1.5820245   10.737402  0.51764195   467213.09
  16733.639  -1.5833252   10.737573  0.51714675   468400.87
  16738.840  -1.5846585   10.738555  0.51659779   468710.59
  16743.670  -1.5859281   10.737891   0.5161192   469641.28
  16748.506   -1.587191   10.738239  0.51561525   470919.87
  16753.342  -1.5884273   10.737708  0.51509287   471907.41
  16758.182  -1.5896033   10.735301  0.51456149   472692.87
  16763.396  -1.5910196   10.738583  0.51404951   472871.28
  16768.244  -1.5922574   10.738578  0.51352388   473284.66
  16773.094  -1.5935112   10.740229  0.51303411   474021.94
  16778.318  -1.5948527    10.73605  0.51243927   474543.16
  16783.174  -1.5960931   10.737298  0.51190509   475740.31
  16788.404  -1.5974209   10.733106  0.51133826   475987.41
  16793.641  -1.5987826   10.736194  0.51081305   476758.44
  16798.504  -1.6000845   10.736529  0.51039527   477642.41
  16803.746  -1.6014158   10.737026  0.50979886   477364.31
  16808.990  -1.6027364   10.736677  0.50926447   478473.16
  16813.863  -1.6037791   10.763713  0.50884655   476549.94
  16819.115  -1.6056695   10.713921  0.50811367   478690.66
  16824.369  -1.6066041   10.737261  0.50765728   480793.31
  16829.627  -1.6079339   10.735471  0.50709345   481276.91
  16834.887  -1.6092654   10.733659     0.50657   482366.44
  16840.152  -1.6105769   10.732902  0.50601993   481863.91
  16845.420  -1.6119377   10.734003  0.50546291   482079.31
  16850.691  -1.6132636   10.734311  0.50492466   482346.66
  16855.965  -1.6145054    10.73347  0.50438709   482791.94
  16861.244  -1.6158859   10.731201  0.50384496   482827.16
  16866.525  -1.6172086   10.730713  0.50328425   483036.28
  16872.188  -1.6186284     10.7281  0.50270173   483498.37
  16877.477  -1.6199281   10.727565  0.50216165   483753.41
  16882.768  -1.6212743    10.72879  0.50161148   483543.37
  16888.441  -1.6226814   10.732761   0.5010381   484043.28
  16893.740  -1.6240017   10.732249   0.5005021   484351.09
  16899.041  -1.6253613   10.725013  0.49994432   483370.87
  16904.727   -1.626755   10.727919  0.49937759   483706.59
  16910.416  -1.6281483   10.727059   0.4987888   483595.22
  16915.729  -1.6293581   10.729076  0.49826959   484056.81
  16921.424  -1.6306999   10.728508  0.49767559   483924.34
  16926.744  -1.6320058   10.726348  0.49710999   484559.78
  16932.447  -1.6334228   10.726167  0.49652491   484869.19
  16938.154  -1.6348233   10.723871   0.4959179   484708.53
  16943.865  -1.6362323   10.723488  0.49534756   484237.78
  16949.582  -1.6375868   10.723819  0.49477697      484766
  16955.301  -1.6389671   10.724438  0.49419499   485403.12
  16960.643  -1.6402831   10.721461   0.4936154   485325.22
  16966.371  -1.6417159   10.718818   0.4930299   484026.22
  16972.100  -1.6430841   10.722011  0.49246073   483863.19
  16977.836  -1.6444295   10.722964  0.49189421   484021.06
  16983.957  -1.6459297   10.725749  0.49127439   484496.91
  16989.699  -1.6472424   10.725786  0.49072015   483519.66
  16995.447  -1.6486223   10.724584  0.49011438   483492.37
  17001.197  -1.6500025   10.722513  0.48955621      483384
