# XDI/1.0 EXAFS Data Collector 1.1 AD.RGN
# Column.1: energy eV
# Column.2: mutrans
# Column.3: mufluor
# Column.4: murefer
# Column.5: i0
# Beamline.name: SSRL 4-3
# Detector.I0: N2 15cm
# Detector.I1: N2+Ar 30cm
# Detector.If: Ar   (Lytle detector, using Rb Filter)
# Detector.I2: Ar
# Element.edge: K
# Element.symbol: Sr
# Mono.d_spacing: 1.920128
# Mono.name: Si(220)
# Mono.notes: (?) unfocussed, detuned 50%, clockwise at E=17000eV
# Sample.formula: SrSO4
# Sample.name: strontium sulfate
# Sample.prep: powder
# Sample.reference: SrCO3
# Sample.temperature: room temperature
# Scan.start_time: 1995-06-14 22:11:02
# ///
#    Note: mono d_spacing is nominal!
#-------------
#   energy   mutrans      mufluor    murefer      i0
  15699.933  -1.7153573  0.75318281  0.65792583   151580.59
  15710.044  -1.7173489  0.74574411  0.65578516   150508.59
  15719.844  -1.7190302  0.73595048  0.65377013   149830.59
  15729.982  -1.7210412  0.72913412  0.65161637   148965.59
  15740.136  -1.7229403  0.71912979  0.64954368   148113.59
  15749.973  -1.7247546  0.71078618  0.64757622   147353.59
  15760.152  -1.7267376  0.70339731  0.64527078   144579.59
  15770.016  -1.7287747  0.69339778   0.6435961   145741.59
  15779.891  -1.7302658  0.68396916  0.64146193   145152.59
  15790.109  -1.7321618   0.6745456  0.63946901   144372.59
  15800.011  -1.7339291  0.66623523  0.63736635   143315.59
  15809.925  -1.7358545  0.65709671  0.63544628   142546.59
  15819.854  -1.7375901  0.64861987  0.63348447   141825.59
  15830.124  -1.7396942  0.64135831  0.63134366   140908.59
  15840.076  -1.7414304  0.63146364  0.62952464   140153.59
  15850.042  -1.7432572  0.62535104  0.62740171   139305.59
  15860.021  -1.7451374  0.61550719  0.62547345   138641.59
  15870.012  -1.7469302  0.60797898  0.62361085   137754.59
  15880.018  -1.7489224   0.6002174  0.62159393   136808.59
  15890.033  -1.7507711  0.59337445  0.61966781   136178.59
  15900.063  -1.7526888  0.58615997  0.61764709   135249.59
  15910.108  -1.7545191  0.57820487  0.61580803   134500.59
  15920.164  -1.7563537  0.57317408  0.61386275   133641.59
  15929.896  -1.7580989  0.56683268  0.61204979   132885.59
  15939.978  -1.7600244  0.56051075  0.61009413   132052.59
  15950.073  -1.7620384  0.55547857  0.60817854   131178.59
  15959.844  -1.7636337  0.54973221  0.60634621    130450.6
  15969.964  -1.7655167  0.54644953  0.60428979    129583.6
  15980.097   -1.767518  0.54291759  0.60249683    129028.6
  15989.906  -1.7692751  0.53962432   0.6006832    128105.6
  16000.064  -1.7710789  0.53665496  0.59875238    127420.6
  16009.897  -1.7728497  0.53639768  0.59693985    126631.6
  16020.082  -1.7746994  0.53432494  0.59514879    125698.6
  16029.942  -1.7762556  0.53603267  0.59317896    124861.6
  16040.152  -1.7780254  0.53952662  0.59134385    124184.6
  16050.036  -1.7797132  0.54376622  0.58963805    123453.6
  16059.933  -1.7813377  0.55166748  0.58779694    122680.6
  16069.841  -1.7827848  0.56427087  0.58612733    121689.6
  16080.104  -1.7841893  0.58207643  0.58431565    120894.6
  16090.039  -1.7851693  0.60973981  0.58265665    120180.6
  16099.984  -1.7856015  0.65530722   0.5810839    119357.6
  16109.943  -1.7850892  0.74012319  0.57976718    118616.6
  16119.917   -1.781121  0.92917997     0.57905    117815.6
  16121.293  -1.7801107  0.96346305  0.57853806    117653.6
  16122.670  -1.7786701   1.0105659  0.57801441    117481.6
  16123.702   -1.777476    1.049254  0.57753551    117478.6
  16125.079  -1.7754091   1.1191296  0.57716341    117244.6
  16126.112  -1.7735293   1.1776887  0.57692564    117071.6
  16127.490  -1.7705227   1.2795853  0.57695885    116963.6
  16128.867  -1.7664742   1.4126275  0.57747164    116924.6
  16129.901   -1.762674   1.5364741  0.57803952    116822.6
  16131.278  -1.7553623   1.7746989  0.58019612    116547.6
  16132.657  -1.7445013   2.1352552  0.58461805    116562.6
  16133.690  -1.7324495   2.5156206  0.58950646    116474.6
  16135.069  -1.7068169   3.3323893  0.59939743    116273.6
  16136.104  -1.6795539    4.173658  0.60770051    116248.6
  16137.483  -1.6243482   5.8015163  0.62065747    116058.6
  16138.861  -1.5503394   7.8592659  0.63529565    115870.6
  16139.897   -1.486883   9.5207454   0.6469346    115840.6
  16141.276  -1.3994136   11.675575  0.66229295    115608.6
  16142.657  -1.3331663   12.015133  0.67429345    115551.6
  16143.692  -1.3065565   12.020213  0.67910236    115502.6
  16145.073  -1.3021306   12.044083  0.68037668    115273.6
  16146.108  -1.3192332   12.061182  0.67704852    115110.6
  16147.490  -1.3570927   12.073961  0.66854656    114988.6
  16148.871  -1.3947721   11.647004  0.65803236    114778.6
  16149.907  -1.4168393   11.100102  0.65045085    114865.6
  16151.289  -1.4373843   10.596111  0.64082429    114669.6
  16152.670  -1.4477248   10.345131  0.63367102    114454.6
  16153.707  -1.4515432   10.252743  0.62966986    114356.6
  16155.090  -1.4550037    10.17637  0.62585595    228382.2
  16155.779  -1.4562185   10.146909  0.62406185   228312.17
  16156.473  -1.4574169   10.116306   0.6226187   228027.08
  16157.162  -1.4584604   10.087753  0.62131072   227846.92
  16157.854  -1.4594249   10.063568  0.62014501    227729.7
  16158.547  -1.4601238   10.045126  0.61907851   227582.41
  16159.237  -1.4603341   10.040402  0.61810846   227465.06
  16160.274  -1.4600558   10.057025  0.61709614   227752.66
  16160.968  -1.4592114    10.07541  0.61626694   227529.19
  16161.659  -1.4580248   10.107598  0.61553096   227864.64
  16162.695  -1.4557594   10.171935  0.61517584   227628.05
  16163.389  -1.4539706   10.222345  0.61492924   227908.39
  16164.426   -1.450534   10.310713  0.61511999   227904.66
  16165.465  -1.4467584   10.414419  0.61565183   227667.87
  16166.157  -1.4442661   10.487271  0.61568633   227442.02
  16167.195  -1.4404247   10.593878  0.61602974   227102.11
  16168.234  -1.4377065   10.647332   0.6163462   227127.12
  16169.271   -1.436537   10.666363  0.61660414   227265.09
  16170.311  -1.4366548   10.661348  0.61712073   227604.98
  16171.349  -1.4373493   10.645625  0.61777649   228023.81
  16172.388   -1.437969   10.641241  0.61855852   228495.59
  16173.428  -1.4374454   10.668844  0.61948527    229468.3
  16174.466  -1.4360663   10.712462  0.62049767   230021.94
  16175.506  -1.4340244   10.772692  0.62131479   230422.52
  16176.545  -1.4313364   10.842861  0.62189239   230624.05
  16177.932  -1.4271437    10.95621  0.62243932    231024.5
  16178.971  -1.4239128   11.042149  0.62251227   231647.89
  16180.012  -1.4206953   11.127176  0.62220072   231885.22
  16181.399  -1.4171424   11.219198  0.62141922   232241.48
  16182.440  -1.4156342   11.262615  0.62062504   232895.69
  16183.826  -1.4152957   11.270798  0.61929792   233430.83
  16185.214  -1.4173573   11.223488  0.61797517   233809.91
  16186.254  -1.4199532   11.161717  0.61673273   234365.92
  16187.644  -1.4247383   11.050591  0.61518862   234948.87
  16189.030  -1.4294493   10.935343  0.61353061   235444.75
  16190.419  -1.4334875   10.843451   0.6116677   235923.58
  16191.809  -1.4362505   10.781156  0.60978447   236374.34
  16193.197  -1.4379523   10.742742   0.6078492   236996.05
  16194.587  -1.4390179   10.726948  0.60612513   237687.67
  16195.976  -1.4400348   10.705603  0.60444479   238378.25
  16197.366  -1.4413674   10.684358  0.60299501   239105.75
  16198.755  -1.4429523   10.648528  0.60156009    240125.2
  16200.493  -1.4451189   10.605673   0.6001577   240612.59
  16201.884  -1.4463489   10.581036  0.59900195   241471.91
  16203.274   -1.447171   10.560563   0.5979691   242343.17
  16205.013  -1.4481079   10.551398   0.5971743   243240.36
  16206.405  -1.4486929   10.548323  0.59673348   244312.48
  16208.145  -1.4497323   10.529493  0.59654174   244889.56
  16209.884  -1.4510509   10.506168   0.5966519   245603.56
  16211.276  -1.4519982   10.489983   0.5967784    246527.5
  16213.016  -1.4530789   10.477052  0.59703991   247598.39
  16214.757  -1.4536566   10.471872  0.59723105    248269.2
  16216.499  -1.4537016   10.482798  0.59723656   249165.95
  16218.240  -1.4532221   10.507371  0.59706538   250149.64
  16219.981  -1.4524199   10.541675  0.59672288   251014.27
  16221.725  -1.4512687   10.582212  0.59635154   252033.83
  16223.468  -1.4496871   10.641666  0.59589205   252832.33
  16225.210  -1.4476439   10.710823  0.59537072   253718.77
  16226.954  -1.4452895   10.788677  0.59487706   254488.14
  16228.698  -1.4430468   10.867833  0.59440646   255102.45
  16230.792  -1.4409277   10.942037  0.59395304    255484.7
  16232.535  -1.4401078   10.984747  0.59365988   256160.89
  16234.281  -1.4401511   10.985585   0.5932885   256849.02
  16236.376  -1.4415487   10.935394  0.59285112   257821.08
  16238.122  -1.4436181   10.878741  0.59238376   259168.06
  16240.217  -1.4470106   10.777606  0.59166265      260662
  16242.313  -1.4508001   10.668403  0.59071522   262168.87
  16244.061  -1.4537371   10.591265  0.58979555   263523.69
  16246.159  -1.4568846   10.524889  0.58871739   265399.41
  16248.257   -1.459375   10.486985  0.58774604   267199.09
  16250.354  -1.4611068   10.479952  0.58667845   269071.72
  16252.454  -1.4621202   10.484021  0.58565627   270547.28
  16254.553  -1.4624445   10.507237  0.58475643   272299.78
  16256.653  -1.4623863   10.530339  0.58388271   273476.19
  16258.753  -1.4623878   10.554298  0.58317535   274920.56
  16260.855  -1.4626563   10.567493   0.5826252   275957.87
  16262.957  -1.4631265   10.564869  0.58208975   277028.09
  16265.059  -1.4636334   10.565488  0.58165825   277981.28
  16267.162  -1.4640955   10.552843  0.58112386   278958.41
  16269.616  -1.4646954   10.539481  0.58064462   280310.44
  16271.719  -1.4651546   10.529077  0.58024896   281864.44
  16274.174  -1.4656322   10.524772  0.57972615   283449.34
  16276.280  -1.4659625   10.527585  0.57932205   285176.22
  16278.736    -1.46624   10.542256   0.5789637      287065
  16280.844  -1.4664369   10.564084  0.57878334   288712.75
  16283.301  -1.4664281   10.585149  0.57860492   290301.41
  16285.760  -1.4663182   10.607635  0.57845572   292067.03
  16288.220   -1.466246   10.624454  0.57814362   293457.56
  16290.328  -1.4663607   10.639132  0.57770132   295448.06
  16292.790  -1.4667347   10.645531  0.57707195   296898.47
  16295.252  -1.4672499   10.647802  0.57639296   298516.84
  16297.715  -1.4679007   10.645986  0.57573198   299812.12
  16300.179  -1.4685287    10.64523  0.57530165   301574.34
  16302.994  -1.4689809   10.652963  0.57499386   303155.53
  16305.459  -1.4693243   10.662479   0.5747915   304771.62
  16307.925  -1.4698039   10.664134  0.57449238   305947.69
  16310.392  -1.4709338   10.649774    0.574141   307686.66
  16313.211  -1.4726371   10.627145  0.57367479   309217.56
  16315.680   -1.473898   10.610004  0.57322383   310961.41
  16318.148  -1.4749269    10.60145  0.57267772   312629.22
  16320.972  -1.4759487   10.593752   0.5720439   314042.94
  16323.442  -1.4766298   10.591328   0.5713992   315614.59
  16326.268  -1.4771485   10.597755  0.57065051   317128.19
  16329.092  -1.4773881   10.614132  0.56992441   319138.72
  16331.564  -1.4775358   10.625032  0.56935529   321105.22
  16334.393  -1.4779179   10.632507  0.56871882   322797.62
  16337.221  -1.4786268   10.637522  0.56809817   324386.97
  16340.050  -1.4794994     10.6283  0.56750359   326057.25
  16342.881  -1.4803685   10.625605  0.56693854   327585.47
  16345.713  -1.4812542   10.624142  0.56637652   329110.62
  16348.544  -1.4820632   10.624686  0.56591457   330878.72
  16351.378  -1.4828364   10.621737  0.56554488   332708.75
  16354.211  -1.4836276   10.624589  0.56522242   334576.72
  16357.047  -1.4843324   10.622666  0.56496951   336724.62
  16360.238  -1.4851653   10.626065  0.56479164   338274.47
  16363.076  -1.4857358   10.629907  0.56452084   340039.25
  16365.914  -1.4864083   10.632972  0.56426771   341641.97
  16369.107  -1.4871065   10.637069  0.56388535   343793.62
  16371.948  -1.4877967   10.638441  0.56348235   345265.22
  16375.146  -1.4885922   10.642696  0.56295729   346998.75
  16377.989  -1.4893264   10.644055  0.56247258   349077.22
  16381.188   -1.490291   10.638288  0.56182042   350436.62
  16384.389  -1.4912194   10.638115  0.56126828   352269.97
  16387.234  -1.4919973   10.640968  0.56069593   353903.22
  16390.438  -1.4928595   10.640455   0.5601038   355795.44
  16393.641  -1.4937153   10.641431  0.55962528   357497.59
  16396.848  -1.4945828   10.639714  0.55912797   359075.69
  16400.055   -1.495474   10.642111  0.55866836   361047.72
  16403.262  -1.4964056   10.639384  0.55820338   363081.66
  16406.471  -1.4974836   10.632294  0.55773611   364902.56
  16409.684  -1.4985016   10.628193   0.5573616   366652.41
  16412.895  -1.4993962   10.626355  0.55694016   368526.16
  16416.107  -1.5002297   10.628002  0.55654599   370232.87
  16419.320  -1.5009623   10.630035  0.55606335   372370.53
  16422.895  -1.5017872   10.634706   0.5555003   374086.09
  16426.111  -1.5026616   10.635336  0.55501432   375790.62
  16429.332  -1.5035443   10.635852   0.5544808   377524.09
  16432.908  -1.5046019   10.632671  0.55393697   378918.47
  16436.129  -1.5056037    10.62847  0.55348114   381000.81
  16439.711  -1.5066551   10.628126  0.55300637   383122.06
  16443.291  -1.5076215   10.626136  0.55256294   384838.28
  16446.518  -1.5084674   10.626541  0.55214462   386976.41
  16450.104  -1.5093475   10.633402  0.55180576    388685.5
  16453.689  -1.5101413   10.638852  0.55149022    390388.5
  16457.277  -1.5109419   10.644575  0.55111255   392311.47
  16460.510  -1.5116494   10.645586  0.55074266   394312.34
  16464.100  -1.5125523   10.649932  0.55033934   396153.19
  16467.695   -1.513415   10.651005  0.54991532   397950.94
  16471.289   -1.514392    10.65767  0.54945086   399852.66
  16474.885  -1.5152536   10.655463  0.54896148   401746.28
  16478.842  -1.5162173   10.658223  0.54849128   403656.84
  16482.441  -1.5170674   10.663081  0.54801176   404876.37
  16486.043  -1.5179576   10.662777  0.54750484   406717.81
  16489.646  -1.5188478   10.661875  0.54703254   408571.19
  16493.611  -1.5199098   10.665197  0.54652147    410021.5
  16497.217    -1.52084   10.665904  0.54605841   411516.78
  16500.826  -1.5218592   10.667939  0.54565425   413410.97
  16504.797  -1.5230145   10.668239  0.54519433   414442.09
  16508.406  -1.5240136   10.664827  0.54478633   416184.16
  16512.381  -1.5252199   10.660418  0.54429261   417388.19
  16516.357  -1.5263719   10.658872  0.54383608   419263.12
  16519.975  -1.5273934    10.65804   0.5434053      421516
  16523.953  -1.5284321    10.65997  0.54293593   423366.81
  16527.936  -1.5294542   10.660725  0.54253299   425058.56
  16531.920  -1.5304511   10.664793  0.54207426   426882.25
  16535.906  -1.5313537   10.665258  0.54159637   428656.87
  16539.531  -1.5322861   10.662191  0.54118856   431106.44
  16543.520   -1.533236   10.660508   0.5407025   432382.97
  16547.875  -1.5343386   10.663823  0.54018371   433670.41
  16551.867  -1.5353132   10.664957  0.53971303   435161.78
  16555.863  -1.5362995   10.663876  0.53923695   436233.09
  16559.861  -1.5374259   10.657269   0.5388329   437821.34
  16563.859  -1.5383701   10.667348   0.5384022   439998.53
  16567.863  -1.5394275   10.671438  0.53797844   442021.62
  16572.230  -1.5405786   10.668365  0.53743618   443666.69
  16576.234  -1.5416234   10.666548  0.53697609   445476.69
  16580.607  -1.5428267   10.666278  0.53648845   446734.62
  16584.617  -1.5438846   10.663597   0.5360255    448112.5
  16588.992  -1.5450817   10.661601  0.53551553   449885.31
  16593.008  -1.5461923   10.663396  0.53506866   451587.06
  16597.387  -1.5473747   10.663937  0.53460689   452922.75
  16601.406  -1.5484655   10.663877  0.53414408   453618.34
  16605.793  -1.5495636    10.66547  0.53371225   455594.91
  16610.182  -1.5507004   10.670733  0.53326032   457481.41
  16614.570  -1.5519082   10.668966  0.53277812   458797.84
  16618.963  -1.5530726   10.666916  0.53231442   460429.19
  16622.992  -1.5540968   10.671022  0.53189666    461222.5
  16627.389  -1.5552276   10.668176  0.53137138   462863.75
  16631.789  -1.5564033   10.668416  0.53087914   464021.94
  16636.191  -1.5574759   10.669646  0.53038392   465349.03
  16640.963  -1.5588015   10.667748   0.5298705   467215.09
  16645.369  -1.5599974   10.668562  0.52939264   468275.06
  16649.779  -1.5611997   10.666917  0.52889203      470198
  16654.189   -1.562337    10.66488  0.52837154   471285.87
  16658.604  -1.5635504   10.665662  0.52790525   472305.66
  16663.389  -1.5647545   10.669261   0.5273988   473710.41
  16667.809  -1.5658787   10.669104  0.52691286   474910.06
  16672.598  -1.5671565   10.662713  0.52637565   476355.69
  16677.021  -1.5682427   10.666238   0.5259088   477534.22
  16681.818   -1.569438   10.677119  0.52544065   479091.72
  16686.246  -1.5705772   10.677975    0.524945   480871.12
  16691.047  -1.5718146   10.677794  0.52441462    481094.5
  16695.480  -1.5729757   10.675854  0.52397129   482142.78
  16700.287   -1.574235    10.67719  0.52345195   483154.03
  16705.096  -1.5754964    10.68185  0.52289887   484811.19
  16709.908  -1.5766835   10.693756  0.52244194   484391.28
  16714.723  -1.5782384   10.672321  0.52180641   485457.34
  16719.170  -1.5792177   10.677066  0.52133269   487835.31
  16723.990  -1.5805028   10.679887  0.52081241   488983.22
  16728.813  -1.5817846   10.681002  0.52030183   489774.09
  16733.639  -1.5830675   10.680834  0.51975648   490656.87
  16738.840  -1.5844441   10.679928  0.51922836   490748.59
  16743.670  -1.5857237   10.680065  0.51869313   491063.28
  16748.506  -1.5869683   10.680146  0.51815275   491831.87
  16753.342   -1.588158   10.680571   0.5176371   492612.41
  16758.182  -1.5894346   10.678674    0.517087   494133.87
  16763.396  -1.5907405    10.68047  0.51653751   494931.28
  16768.244  -1.5920315   10.679443  0.51600587   495566.66
  16773.094  -1.5932947   10.679886   0.5154452   495714.94
  16778.318  -1.5947285   10.679029   0.5148683   496222.16
  16783.174  -1.5960584    10.68207  0.51435176   497090.31
  16788.404  -1.5974273   10.680097  0.51373322   497679.41
  16793.641  -1.5987936   10.683782  0.51320507   498386.44
  16798.504  -1.6000632   10.685696  0.51265695   499131.41
  16803.746  -1.6014286   10.686146  0.51208496   499686.31
  16808.990  -1.6027955   10.687455  0.51148341   500050.16
  16813.863  -1.6038453   10.711962  0.51093257   497125.94
  16819.115  -1.6057871   10.662648  0.51038817   498962.66
  16824.369  -1.6067706   10.688314  0.50989764   502063.31
  16829.627  -1.6080667   10.685759  0.50929211   502325.91
  16834.887  -1.6094176   10.685806  0.50869359   502026.44
  16840.152  -1.6106937   10.686319  0.50810639   502908.91
  16845.420  -1.6120224   10.684245  0.50753245   502957.31
  16850.691  -1.6133164   10.685774  0.50694962   503409.66
  16855.965  -1.6145925   10.685616  0.50638717   503716.94
  16861.244  -1.6159177   10.684084  0.50579794   503989.16
  16866.525  -1.6172179   10.687556  0.50524624   505529.28
  16872.188  -1.6186912    10.68596  0.50458014   505524.37
  16877.477  -1.6199583   10.683943   0.5040125   505676.41
  16882.768  -1.6212696   10.685981  0.50345163   505971.37
  16888.441  -1.6226446   10.683576  0.50282644   506418.28
  16893.740  -1.6239545   10.686944  0.50226867   506550.09
  16899.041  -1.6252841    10.68274  0.50165932   506692.87
  16904.727  -1.6266866   10.684834  0.50105934   506391.59
  16910.416  -1.6279928   10.685719  0.50041763   507304.22
  16915.729  -1.6293167   10.685602  0.49982466   507418.81
  16921.424   -1.630678   10.690485  0.49921064   507532.34
  16926.744  -1.6320392   10.688589  0.49865033   507116.78
  16932.447   -1.633454    10.68564  0.49802538   507631.19
  16938.154   -1.634875   10.687415  0.49740283   507768.53
  16943.865  -1.6362706   10.685814  0.49677554   507439.78
  16949.582   -1.637611   10.690001  0.49617982      507960
  16955.301  -1.6390358   10.689249  0.49559297   507415.12
  16960.643  -1.6403049   10.689292  0.49499076   507646.22
  16966.371  -1.6416645   10.688025  0.49437091   507942.22
  16972.100  -1.6430401    10.69093  0.49376206   507489.19
  16977.836  -1.6444223   10.690864  0.49314405   506373.06
  16983.957  -1.6458615   10.694622   0.4925024   506047.91
  16989.699  -1.6472046   10.699033  0.49192378   506107.66
  16995.447  -1.6485853   10.700528  0.49132456   506115.37
  17001.197  -1.6499102   10.702672   0.4907294      505442
