# XDI/1.0 EXAFS Data Collector 1.1 AD.RGN
# Column.1: energy eV
# Column.2: mutrans
# Column.3: murefer
# Column.4: i0
# Beamline.name: SSRL 4-3
# Detector.I0: N2 15cm
# Detector.I1: N2+Ar 30cm
# Detector.I2: Ar
# Element.edge: K
# Element.symbol: Sr
# Mono.d_spacing: 1.920128
# Mono.name: Si(220)
# Mono.notes: (?) unfocussed, detuned 50%, clockwise at E=17000eV
# Sample.formula: SrTiO3
# Sample.name: strontium titanate
# Sample.prep: powder
# Sample.reference: SrCO3
# Sample.temperature: 10K
# Scan.start_time: 1995-06-16 03:59:08
# ///
#    Note: mono d_spacing is nominal!
#-------------
#   energy   mutrans      murefer      i0
  15699.933   1.9030214  -1.1227572   71555.703
  15710.044   1.9006527  -1.1248711   71185.703
  15719.844   1.8983073  -1.1255256   70818.703
  15729.982   1.8955367  -1.1267551   70449.703
  15740.136     1.89299  -1.1274199   70064.703
  15749.973   1.8907607  -1.1288289   69696.703
  15760.152   1.8877256  -1.1303154   68296.703
  15770.016   1.8826975   -1.131066   68880.703
  15779.891   1.8829075  -1.1323427   68671.703
  15790.109   1.8804178  -1.1332763   68297.703
  15800.011    1.877761  -1.1348097   67900.703
  15809.925   1.8754193  -1.1359331   67552.703
  15819.854   1.8727531  -1.1379048   67229.703
  15830.124   1.8705155  -1.1387398   66871.703
  15840.076   1.8679405  -1.1401195   66576.703
  15850.042   1.8651219  -1.1411818   66182.703
  15860.021   1.8629226  -1.1426909   65824.703
  15870.012   1.8600563  -1.1437037   65475.699
  15880.018   1.8573952   -1.145418   65128.699
  15890.033   1.8550864  -1.1466279   64818.699
  15900.063   1.8528097    -1.14824   64441.699
  15910.108   1.8505811  -1.1493862   64113.699
  15920.164   1.8484702   -1.150879   63800.699
  15929.896   1.8460069   -1.152341   63434.699
  15939.978   1.8435328  -1.1536626   63094.699
  15950.073    1.841053  -1.1552836   62673.699
  15959.844   1.8386099  -1.1564312   62300.699
  15969.964   1.8365411  -1.1580973   61983.699
  15980.097   1.8342939  -1.1595719   61631.699
  15989.906   1.8325113  -1.1607217   61290.699
  16000.064   1.8295123  -1.1622843   61013.699
  16009.897   1.8273529  -1.1637482   60670.699
  16020.082   1.8244872  -1.1648871   60267.699
  16029.942   1.8217097  -1.1662249   59902.699
  16040.152   1.8201197  -1.1677997   59634.699
  16050.036   1.8178094  -1.1691657   59287.699
  16059.933   1.8161614  -1.1706047   58925.699
  16069.841   1.8145181  -1.1720823   58595.699
  16080.104   1.8122902  -1.1736836   58140.699
  16090.039   1.8101572   -1.175138   57845.699
  16099.984   1.8090379  -1.1763097   57530.699
  16109.943   1.8091089  -1.1779567   57180.699
  16119.917   1.8127965   -1.179443   56803.699
  16121.293   1.8135366  -1.1792777   56796.699
  16122.670   1.8150792  -1.1795957   56724.699
  16123.702   1.8162754  -1.1796462   56755.699
  16125.079   1.8180405  -1.1797584   56652.699
  16126.112   1.8199618  -1.1798533   56619.699
  16127.490   1.8238394   -1.180121   56523.699
  16128.867   1.8292749  -1.1803081   56476.699
  16129.901   1.8348369  -1.1803604   56459.699
  16131.278   1.8465257  -1.1804244   56432.699
  16132.657    1.866797  -1.1807463   56320.699
  16133.690   1.8869805  -1.1805191   56320.699
  16135.069   1.9252865  -1.1806664   56325.699
  16136.104   1.9675852  -1.1804711   56305.699
  16137.483    2.061786  -1.1803412   56247.699
  16138.861   2.1704149  -1.1799853   56200.699
  16139.897   2.2387198  -1.1796078   56017.699
  16141.276    2.343043  -1.1794702   55981.699
  16142.657   2.4664769  -1.1791084   55949.699
  16143.692   2.5107545  -1.1782821   55896.699
  16145.073   2.4633271   -1.179043   55867.699
  16146.108   2.3859761   -1.179914   55752.699
  16147.490   2.2710941  -1.1800824   55835.699
  16148.871   2.1841728  -1.1811534   55726.699
  16149.907   2.1453537  -1.1811632   55749.699
  16151.289   2.1181558  -1.1816422   55592.699
  16152.670    2.113301  -1.1822399   55480.699
  16153.707   2.1219344  -1.1822679   55527.699
  16155.090   2.1435044  -1.1822764    110858.4
  16155.779   2.1528885  -1.1822117   110844.36
  16156.473   2.1603703  -1.1823352   110817.25
  16157.162   2.1639247  -1.1823855   110723.05
  16157.854   2.1636737  -1.1824873   110771.79
  16158.547   2.1610675  -1.1825411   110663.44
  16159.237   2.1570134  -1.1828333   110697.02
  16160.274   2.1515059  -1.1826593   110816.52
  16160.968   2.1493361  -1.1830983   110889.95
  16161.659   2.1479734  -1.1829745   110820.29
  16162.695   2.1460559  -1.1831355   110919.56
  16163.389   2.1457159   -1.183319   111004.76
  16164.426   2.1469493  -1.1831139   111058.87
  16165.465   2.1530108  -1.1834683   111081.91
  16166.157   2.1590809  -1.1835889   111170.87
  16167.195   2.1720275  -1.1839414   111286.77
  16168.234   2.1885913  -1.1837313   111138.58
  16169.271   2.2049751  -1.1839216   110861.31
  16170.311   2.2101377  -1.1839118   111060.97
  16171.349   2.2192884  -1.1839642   111142.55
  16172.388   2.2340453  -1.1839854   111402.05
  16173.428   2.2514708  -1.1842228   111866.48
  16174.466   2.2657416  -1.1843564   112401.83
  16175.506   2.2705629  -1.1843556    112564.1
  16176.545   2.2665019  -1.1844043    112779.3
  16177.932   2.2461948  -1.1849288   112946.41
  16178.971   2.2249226  -1.1852017   113201.45
  16180.012   2.2025486  -1.1855329   113478.42
  16181.399   2.1798691   -1.185798   113661.31
  16182.440   2.1709829  -1.1859191   113912.12
  16183.826   2.1684606  -1.1862699   114055.86
  16185.214   2.1765278  -1.1864512   114399.52
  16186.254   2.1871225  -1.1863089    114737.1
  16187.644   2.2059599  -1.1865504   114967.61
  16189.030   2.2234638  -1.1865633   115307.03
  16190.419   2.2313192   -1.186742   115573.38
  16191.809   2.2256519  -1.1869601   116039.66
  16193.197   2.2100451  -1.1871833   116255.86
  16194.587   2.1898777  -1.1877487   116746.98
  16195.976   2.1700519  -1.1880414   117054.02
  16197.366   2.1542198  -1.1882564   117315.99
  16198.755   2.1445921  -1.1885632   117716.88
  16200.493    2.138153  -1.1885914    118102.7
  16201.884     2.13648  -1.1888481   118434.44
  16203.274   2.1345331  -1.1891567    119019.1
  16205.013   2.1302552   -1.189247   119414.68
  16206.405   2.1272767  -1.1893422   119750.19
  16208.145   2.1266335  -1.1895003   120161.62
  16209.884   2.1326163  -1.1897584   120647.98
  16211.276   2.1421624  -1.1901237   121099.25
  16213.016   2.1587048  -1.1901647   121751.45
  16214.757   2.1752437  -1.1902531   121994.58
  16216.499   2.1874469  -1.1902701   122502.62
  16218.240   2.1951669  -1.1907972   123145.59
  16219.981   2.1991933  -1.1911066   123460.48
  16221.725   2.1992005  -1.1913092    123991.3
  16223.468   2.1975311  -1.1915207   124457.05
  16225.210   2.1976886  -1.1918516   125013.71
  16226.954    2.201284  -1.1918632    125469.3
  16228.698   2.2043147  -1.1921383    125981.8
  16230.792   2.2002955  -1.1923791   126302.23
  16232.535   2.1891191  -1.1925941   126687.59
  16234.281   2.1742365  -1.1930243   126982.87
  16236.376   2.1596461  -1.1933308   127001.08
  16238.122    2.153212  -1.1936319    127196.2
  16240.217   2.1486636  -1.1940558   127649.25
  16242.313   2.1458105  -1.1943389   128278.22
  16244.061   2.1440715  -1.1945698   128892.12
  16246.159   2.1405328  -1.1949376   129890.94
  16248.257    2.136126  -1.1951685   131232.67
  16250.354   2.1303444  -1.1953332   132495.34
  16252.454   2.1244246  -1.1955393   133602.94
  16254.553   2.1221476  -1.1958241   134574.44
  16256.653   2.1250067   -1.196015   135308.87
  16258.753   2.1294313  -1.1960088   135729.23
  16260.855   2.1334621  -1.1964544   136400.52
  16262.957   2.1353735  -1.1965671   136699.72
  16265.059   2.1385096  -1.1971529   137217.86
  16267.162   2.1442304  -1.1971198   137743.91
  16269.616    2.153103  -1.1966399   138121.87
  16271.719   2.1612396   -1.196988   138705.78
  16274.174    2.167617  -1.1972224   139446.59
  16276.280   2.1702128  -1.1977632   140362.34
  16278.736   2.1721513    -1.19798   141250.02
  16280.844    2.170949  -1.1981447   142360.59
  16283.301    2.164572  -1.1984818   143215.11
  16285.760   2.1550642  -1.1989268   143895.55
  16288.220   2.1444978   -1.199397   144746.91
  16290.328   2.1353279  -1.1997216    145598.2
  16292.790   2.1261407  -1.2000376   146343.41
  16295.252   2.1213992   -1.200526   147108.53
  16297.715   2.1209408  -1.2009675   147913.59
  16300.179   2.1223252  -1.2013967   148749.56
  16302.994   2.1234544  -1.2015707   149423.47
  16305.459   2.1249631   -1.201894   150314.28
  16307.925   2.1283757  -1.2021839   151033.03
  16310.392   2.1323915  -1.2024421    151820.7
  16313.211   2.1359045  -1.2027807    152594.3
  16315.680   2.1350953  -1.2031091   153546.81
  16318.148   2.1295461  -1.2033453   154414.25
  16320.972   2.1219179  -1.2040852   155261.61
  16323.442   2.1165533  -1.2046453   156124.91
  16326.268   2.1169245  -1.2052249   156847.11
  16329.092    2.121806  -1.2056724   157597.23
  16331.564   2.1264018  -1.2058536    158699.3
  16334.393    2.129548  -1.2063269   159517.28
  16337.221   2.1304207  -1.2068613   160395.17
  16340.050   2.1313394  -1.2071364      161096
  16342.881    2.133312  -1.2074424   162018.75
  16345.713   2.1358682  -1.2078071   162971.42
  16348.544   2.1362693  -1.2080675   163837.02
  16351.378   2.1328882  -1.2088327   164494.53
  16354.211   2.1273663  -1.2092521   165345.98
  16357.047   2.1197665  -1.2097341   166437.34
  16360.238   2.1106593   -1.210084   167208.62
  16363.076   2.1033227  -1.2105407   168183.84
  16365.914   2.0997623  -1.2108241   169211.97
  16369.107    2.101662  -1.2112768   170017.03
  16371.948   2.1056009  -1.2117676   170951.02
  16375.146   2.1095172   -1.212068   171802.92
  16377.989   2.1115099  -1.2123689   172648.75
  16381.188   2.1107535   -1.212638    173573.5
  16384.389   2.1100824  -1.2132716   174511.17
  16387.234   2.1113239  -1.2135262   175460.77
  16390.438   2.1143677  -1.2138081    176324.3
  16393.641    2.116384  -1.2141469   177415.73
  16396.848   2.1145709  -1.2145569   178408.09
  16400.055   2.1098693   -1.215079   179513.39
  16403.262   2.1052825  -1.2155911   180427.61
  16406.471   2.1015254  -1.2160083   181250.73
  16409.684    2.098203  -1.2162896    182249.8
  16412.895   2.0962321  -1.2168156   183080.78
  16416.107   2.0963848  -1.2172476   184143.69
  16419.320   2.0978192  -1.2176589   184979.52
  16422.895   2.0995203  -1.2181694   185809.27
  16426.111   2.0985479  -1.2189589   186745.95
  16429.332   2.0939811  -1.2192993   187753.55
  16432.908   2.0874589  -1.2199494   188653.08
  16436.129   2.0830201  -1.2201634   189574.52
  16439.711    2.082149  -1.2208498   190602.89
  16443.291   2.0820461  -1.2211963   191407.17
  16446.518   2.0815629  -1.2214891   192450.39
  16450.104   2.0836465  -1.2219081   193306.53
  16453.689   2.0894491   -1.222539   194411.59
  16457.277    2.096475  -1.2228514   195273.58
  16460.510   2.1021927  -1.2228651   196429.48
  16464.100   2.1039362   -1.223228   197357.31
  16467.695   2.0987825  -1.2237833   198213.08
  16471.289   2.0896473   -1.224533   199087.75
  16474.885   2.0806792  -1.2250298   200219.36
  16478.842   2.0732706  -1.2256292   200944.87
  16482.441   2.0702372  -1.2260406   201898.33
  16486.043   2.0704783  -1.2269373    202874.7
  16489.646   2.0705799  -1.2272577      203783
  16493.611   2.0702308  -1.2277983    204551.2
  16497.217   2.0695385  -1.2281435   205707.36
  16500.826    2.069233  -1.2282031   206450.42
  16504.797   2.0710878  -1.2288823   207426.41
  16508.406   2.0721299  -1.2292826   208402.31
  16512.381   2.0704785  -1.2297297   209395.14
  16516.357   2.0680481  -1.2302585   210298.91
  16519.975   2.0663756  -1.2308112   211064.58
  16523.953   2.0642184  -1.2311878   212165.19
  16527.936   2.0632362   -1.231849   212998.72
  16531.920   2.0631817  -1.2323323   213737.17
  16535.906   2.0646779  -1.2327676   214429.55
  16539.531   2.0657072  -1.2332788   215440.84
  16543.520   2.0645804  -1.2337903   216673.06
  16547.875   2.0633925  -1.2343608    217164.2
  16551.867   2.0613402  -1.2347983   217850.27
  16555.863   2.0581515  -1.2355185   218597.25
  16559.861   2.0549361  -1.2359932   219401.17
  16563.859   2.0543176  -1.2365166      220801
  16567.863   2.0519057  -1.2369721   221644.77
  16572.230   2.0498179   -1.238024   222601.45
  16576.234   2.0463122  -1.2384731   223352.05
  16580.607   2.0407712  -1.2379289   224069.58
  16584.617   2.0390952  -1.2382907   224897.03
  16588.992   2.0395912  -1.2387671   225719.41
  16593.008   2.0410329  -1.2390446    226417.7
  16597.387   2.0424458  -1.2397257   227364.94
  16601.406    2.042207   -1.240195   228045.08
  16605.793   2.0408704  -1.2407684   228812.14
  16610.182   2.0384692  -1.2413678   229831.14
  16614.570   2.0382109  -1.2418367   230855.05
  16618.963   2.0365355  -1.2425368   231656.89
  16622.992   2.0347901   -1.242588   232285.66
  16627.389   2.0330273  -1.2430903   233258.33
  16631.789   2.0291377  -1.2437911   233880.94
  16636.191   2.0246785   -1.244558   234747.47
  16640.963   2.0216953  -1.2452774   235533.92
  16645.369   2.0206895  -1.2459903   236509.31
  16649.779   2.0222488  -1.2465703   237079.61
  16654.189   2.0239053  -1.2470722   238407.83
  16658.604    2.025129  -1.2474663   238983.98
  16663.389   2.0230814  -1.2479857   239784.05
  16667.809   2.0185459  -1.2483173   240516.05
  16672.598   2.0137477  -1.2487065   241359.97
  16677.021   2.0105768  -1.2492999    241777.8
  16681.818   2.0081527  -1.2499936   242296.56
  16686.246   2.0058958  -1.2508369   243052.25
  16691.047   2.0036862  -1.2518284   243680.86
  16695.480   2.0033209  -1.2523384   244259.39
  16700.287   2.0042165  -1.2529638   244826.86
  16705.096   2.0060501  -1.2535116   245372.23
  16709.908   2.0058107  -1.2540411   245795.53
  16714.723   2.0010277  -1.2546354   246085.77
  16719.170      1.9999  -1.2552883   247202.91
  16723.990   1.9963741  -1.2560141   248148.98
  16728.813   1.9942061  -1.2565818   248460.98
  16733.639   1.9921116  -1.2573205   249132.91
  16738.840   1.9904553  -1.2577416   249675.75
  16743.670   1.9900985  -1.2588175   250482.52
  16748.506   1.9890904   -1.259468    250854.2
  16753.342   1.9883111  -1.2599626   251471.81
  16758.182    1.987059  -1.2608569   252107.34
  16763.396   1.9864982  -1.2614596    252200.8
  16768.244   1.9850766  -1.2619933   252848.19
  16773.094   1.9814248  -1.2623989   253341.48
  16778.318    1.978663  -1.2631769   253720.72
  16783.174   1.9766623  -1.2636822   254252.87
  16788.404   1.9744982  -1.2641474   254494.95
  16793.641   1.9722822  -1.2647907   254713.94
  16798.504    1.969572  -1.2652464   255255.86
  16803.746   1.9670858  -1.2658977    255506.7
  16808.990   1.9652599  -1.2665296   255780.48
  16813.863   1.9661263  -1.2671786   256035.17
  16819.115   1.9591733  -1.2677557   255002.78
  16824.369    1.964493  -1.2680989   257065.33
  16829.627   1.9621784  -1.2686501   257135.78
  16834.887   1.9586343  -1.2694606   257526.17
  16840.152   1.9569588  -1.2700346   258024.47
  16845.420   1.9572464   -1.270861    258383.7
  16850.691   1.9569177  -1.2715331   258632.86
  16855.965   1.9544539  -1.2722968   258886.94
  16861.244   1.9509093  -1.2729147   259061.94
  16866.525   1.9478115  -1.2737327   259347.86
  16872.188   1.9455164  -1.2747853    259571.7
  16877.477   1.9444968  -1.2755554   259327.48
  16882.768   1.9435166  -1.2762997   259554.17
  16888.441   1.9407413  -1.2764528   259703.78
  16893.740   1.9391213  -1.2772799   260039.33
  16899.041   1.9383145  -1.2774221    260674.8
  16904.727   1.9373346  -1.2784206   260833.17
  16910.416   1.9361106  -1.2790713   260864.48
  16915.729   1.9336064  -1.2794153   260996.72
  16921.424   1.9309863  -1.2799599   261171.87
  16926.744   1.9283575  -1.2802545   261719.95
  16932.447   1.9263596  -1.2811421   262098.95
  16938.154   1.9241286  -1.2820567   261954.87
  16943.865   1.9223031  -1.2826064   261758.73
  16949.582   1.9211287  -1.2835654    262005.5
  16955.301   1.9202022  -1.2842963    261961.2
  16960.643   1.9191307  -1.2849746   261714.81
  16966.371   1.9169208  -1.2856518   262000.36
  16972.100   1.9140007  -1.2861631   262279.81
  16977.836   1.9106085  -1.2865686   262512.22
  16983.957   1.9069193  -1.2875349   262385.53
  16989.699   1.9045853  -1.2879223   262463.75
  16995.447   1.9022973  -1.2884724   262303.91
  17001.197   1.9021293  -1.2890891      261969
