# XDI/1.0 EXAFS Data Collector 1.1 AD.RGN
# Column.1: energy eV
# Column.2: mutrans
# Column.3: murefer
# Column.4: i0
# Beamline.name: SSRL 4-3
# Detector.I0: N2 15cm
# Detector.I1: N2+Ar 30cm
# Detector.I2: Ar
# Element.edge: K
# Element.symbol: Sr
# Mono.d_spacing: 1.920128
# Mono.name: Si(220)
# Mono.notes: (?) unfocussed, detuned 50%, clockwise at E=17000eV
# Sample.formula: SrTiO3
# Sample.name: strontium titanate
# Sample.prep: powder
# Sample.reference: SrCO3
# Sample.temperature: 10K
# Scan.start_time: 1995-06-16 03:59:08
# ///
#    Note: mono d_spacing is nominal!
#-------------
#   energy   mutrans      murefer      i0
  15699.933    1.912247  -1.1167596   68164.703
  15710.044   1.9097506  -1.1185109   67778.703
  15719.844     1.90731  -1.1196813   67404.703
  15729.982   1.9045668  -1.1210774   67038.703
  15740.136    1.902005  -1.1224417   66699.703
  15749.973   1.8998704  -1.1239848   66276.703
  15760.152   1.8959233  -1.1254263   65116.699
  15770.016   1.8905822  -1.1266197   65703.703
  15779.891   1.8910374  -1.1281263   65501.699
  15790.109    1.887841  -1.1290117   65074.699
  15800.011   1.8860402  -1.1310496   64680.699
  15809.925   1.8836936  -1.1321621   64410.699
  15819.854   1.8813045  -1.1335797   64066.699
  15830.124    1.878834   -1.134912   63705.699
  15840.076   1.8761662  -1.1364674   63359.699
  15850.042   1.8734762   -1.138062   63013.699
  15860.021   1.8709233  -1.1393398   62664.699
  15870.012     1.86849  -1.1409903   62272.699
  15880.018   1.8659275  -1.1435452   61880.699
  15890.033   1.8650394  -1.1447169   61541.699
  15900.063   1.8627357  -1.1457767   61277.699
  15910.108   1.8602949  -1.1469041   60922.699
  15920.164   1.8581812  -1.1486988   60601.699
  15929.896   1.8558832  -1.1501519   60206.699
  15939.978   1.8532974  -1.1516338   59891.699
  15950.073   1.8507598  -1.1529697   59561.699
  15959.844   1.8483513  -1.1548506   59132.699
  15969.964   1.8460605  -1.1561023   58889.699
  15980.097    1.843376   -1.157909   58510.699
  15989.906   1.8413039  -1.1593096   58143.699
  16000.064   1.8385046  -1.1608394   57817.699
  16009.897   1.8362648  -1.1621502   57512.699
  16020.082   1.8333418  -1.1636724   57169.699
  16029.942   1.8305856  -1.1650647   56837.699
  16040.152    1.829279  -1.1667041   56470.699
  16050.036   1.8270357  -1.1679558   56157.699
  16059.933   1.8247799  -1.1695124   55770.699
  16069.841   1.8230642  -1.1709236   55402.699
  16080.104   1.8207939  -1.1723871   55054.699
  16090.039   1.8188135  -1.1738129   54680.699
  16099.984   1.8179838  -1.1753974   54339.699
  16109.943   1.8180004  -1.1768672   54112.699
  16119.917   1.8217515  -1.1781053   53660.699
  16121.293   1.8225432  -1.1779983   53653.699
  16122.670   1.8238345  -1.1781126   53617.699
  16123.702   1.8252899   -1.178361   53571.699
  16125.079   1.8274108   -1.178325   53635.699
  16126.112    1.829715  -1.1785118   53578.699
  16127.490   1.8333559   -1.178628   53542.699
  16128.867   1.8390876  -1.1790987   53422.699
  16129.901   1.8447437  -1.1791922   53434.699
  16131.278   1.8564107  -1.1793188   53389.699
  16132.657   1.8766596  -1.1796062   53325.699
  16133.690   1.8971081  -1.1793667   53300.699
  16135.069   1.9351482  -1.1792755   53206.699
  16136.104   1.9774038  -1.1794704   53133.699
  16137.483   2.0715617  -1.1789533   53204.699
  16138.861   2.1803794  -1.1785269   53161.699
  16139.897   2.2489143  -1.1787512   53018.699
  16141.276     2.35214  -1.1779699   53109.699
  16142.657   2.4748262  -1.1772395   52973.699
  16143.692   2.5197916  -1.1767035   52949.699
  16145.073   2.4726856  -1.1770857   52919.699
  16146.108   2.3963541  -1.1779193   52841.699
  16147.490   2.2813556  -1.1782272   52818.699
  16148.871   2.1934325   -1.179532   52667.699
  16149.907   2.1555808  -1.1797007   52679.699
  16151.289   2.1278297  -1.1801744   52673.699
  16152.670   2.1227082  -1.1807064   52571.699
  16153.707   2.1311686    -1.18076   52588.699
  16155.090   2.1528849  -1.1810209    105127.4
  16155.779   2.1621146  -1.1810415   104998.36
  16156.473   2.1694969  -1.1808344   105040.25
  16157.162   2.1731362  -1.1809059   104965.05
  16157.854   2.1732238  -1.1810552   104998.79
  16158.547   2.1709611  -1.1812663   105048.44
  16159.237   2.1669378  -1.1812076   105104.02
  16160.274   2.1614268  -1.1812969   105113.52
  16160.968   2.1592966  -1.1814751   105093.95
  16161.659   2.1579133  -1.1815174   105169.29
  16162.695   2.1562444  -1.1817205   105239.56
  16163.389   2.1559354  -1.1819135   105270.76
  16164.426   2.1573188  -1.1818983   105427.88
  16165.465   2.1631255  -1.1823234   105443.91
  16166.157   2.1693499  -1.1825433   105613.88
  16167.195   2.1820705  -1.1824409   105486.77
  16168.234   2.1989164  -1.1824341   105512.58
  16169.271   2.2155605  -1.1823874   105230.31
  16170.311   2.2206694  -1.1823249   105381.97
  16171.349    2.229492  -1.1824693   105515.55
  16172.388   2.2444297  -1.1825887   105866.05
  16173.428   2.2618298  -1.1824926   106320.48
  16174.466   2.2762972  -1.1826968   106902.83
  16175.506   2.2809828  -1.1828006    107059.1
  16176.545   2.2771001  -1.1830765    107186.3
  16177.932   2.2565304  -1.1830778   107339.41
  16178.971   2.2353314  -1.1834932   107607.45
  16180.012   2.2129559  -1.1839954   107863.42
  16181.399   2.1899994  -1.1841431   108099.31
  16182.440   2.1809329  -1.1842742   108481.12
  16183.826   2.1786607  -1.1846065   108731.86
  16185.214   2.1868285  -1.1847218   109028.52
  16186.254   2.1978198  -1.1847416    109298.1
  16187.644   2.2170385  -1.1847638   109583.61
  16189.030   2.2345988  -1.1851567   109862.03
  16190.419   2.2422285  -1.1852532   110166.38
  16191.809   2.2365353  -1.1856291   110569.66
  16193.197   2.2203508  -1.1857888   110929.86
  16194.587   2.1999994  -1.1859882   111192.98
  16195.976   2.1806836  -1.1862943   111657.02
  16197.366   2.1656829  -1.1868054   111944.99
  16198.755   2.1562555  -1.1869892   112402.88
  16200.493   2.1506275  -1.1872081    112635.7
  16201.884   2.1489369  -1.1875924   113118.44
  16203.274   2.1466666  -1.1877894    113567.1
  16205.013   2.1426813  -1.1877586   113970.68
  16206.405   2.1400366  -1.1882214   114352.19
  16208.145   2.1397523  -1.1885115   114627.62
  16209.884   2.1456366   -1.188561   115091.98
  16211.276   2.1553233  -1.1888777   115583.25
  16213.016   2.1719204  -1.1888309   116140.45
  16214.757    2.188406  -1.1888625   116536.58
  16216.499   2.2006105  -1.1888283   116955.62
  16218.240   2.2086565  -1.1889898   117389.59
  16219.981   2.2127899  -1.1892632   117956.48
  16221.725   2.2123722  -1.1895036    118453.3
  16223.468   2.2110115  -1.1900189   118910.05
  16225.210    2.211242  -1.1899959   119399.71
  16226.954   2.2145891  -1.1902766    119915.3
  16228.698   2.2176071  -1.1903055    120392.8
  16230.792   2.2145348  -1.1908618   120403.23
  16232.535   2.2036468  -1.1912154   120588.59
  16234.281   2.1890723  -1.1915109   120810.87
  16236.376    2.174527  -1.1917759   120978.08
  16238.122   2.1681839  -1.1920433    121299.2
  16240.217   2.1637951  -1.1925791   121718.25
  16242.313   2.1605562  -1.1927368   122193.22
  16244.061   2.1587176  -1.1929504   122965.12
  16246.159   2.1552418  -1.1931678   124134.94
  16248.257   2.1508368  -1.1935544   125401.68
  16250.354   2.1447251   -1.193743   126532.34
  16252.454   2.1394266  -1.1940264   127696.93
  16254.553   2.1372666  -1.1945043   128631.45
  16256.653   2.1400345  -1.1948809   129214.88
  16258.753    2.144798  -1.1951902   129820.23
  16260.855   2.1484353  -1.1954493   130272.52
  16262.957   2.1499749  -1.1956072   130683.73
  16265.059   2.1525746   -1.195922   131268.86
  16267.162   2.1589913  -1.1960094   131614.91
  16269.616   2.1688281  -1.1962837   132122.87
  16271.719   2.1770509  -1.1964897   132748.78
  16274.174   2.1835929  -1.1968434   133435.59
  16276.280   2.1855842  -1.1968928   134272.34
  16278.736   2.1872106   -1.197022   135267.02
  16280.844   2.1861549  -1.1972544   136210.59
  16283.301   2.1795296   -1.197664   137265.11
  16285.760   2.1697334  -1.1982273   138071.55
  16288.220   2.1587892  -1.1986276   138905.91
  16290.328   2.1496568  -1.1991156    139761.2
  16292.790   2.1405066  -1.1996668   140450.41
  16295.252   2.1354429  -1.2000482   141210.53
  16297.715   2.1354926  -1.2004538   141933.59
  16300.179   2.1370867  -1.2007544   142766.56
  16302.994   2.1385612  -1.2010629   143363.47
  16305.459   2.1401047  -1.2013657   144243.28
  16307.925   2.1440735  -1.2017087   145025.03
  16310.392   2.1482522  -1.2018708    145823.7
  16313.211   2.1511542  -1.2022923    146791.3
  16315.680   2.1505248  -1.2029079   147473.81
  16318.148   2.1453704  -1.2033324   148383.25
  16320.972   2.1370567  -1.2036937   149121.61
  16323.442   2.1319589  -1.2040599   150049.91
  16326.268   2.1317562  -1.2042834   150879.11
  16329.092   2.1368882  -1.2045828   151646.23
  16331.564   2.1417368  -1.2051574    152518.3
  16334.393   2.1442874  -1.2053737   153435.28
  16337.221   2.1442126  -1.2052506   154292.17
  16340.050   2.1441597  -1.2054786      155075
  16342.881   2.1458356  -1.2057257   155921.75
  16345.713   2.1485355  -1.2058873   156862.42
  16348.544   2.1488175   -1.206403   157837.02
  16351.378   2.1453814   -1.206832   158649.53
  16354.211   2.1383037  -1.2073507   159442.98
  16357.047   2.1303265  -1.2073984   160325.34
  16360.238   2.1211289  -1.2077388   161111.62
  16363.076   2.1146581  -1.2082394   162145.84
  16365.914   2.1115836  -1.2086779   163061.97
  16369.107   2.1130484  -1.2093204   164129.03
  16371.948   2.1167406  -1.2098246   164836.02
  16375.146   2.1211895  -1.2104308   165795.92
  16377.989   2.1225528  -1.2105578   166647.75
  16381.188    2.121678  -1.2109926    167510.5
  16384.389   2.1213176  -1.2116086   168516.17
  16387.234   2.1233292  -1.2124318   169471.77
  16390.438   2.1269545  -1.2128495    170554.3
  16393.641   2.1288621  -1.2132934   171582.73
  16396.848   2.1274849   -1.214194   172308.09
  16400.055   2.1229861  -1.2144658   173243.39
  16403.262    2.118293  -1.2149215   174240.61
  16406.471   2.1145573  -1.2154007   175209.73
  16409.684   2.1114273  -1.2158564    175903.8
  16412.895   2.1095707  -1.2163667   176832.78
  16416.107   2.1095929  -1.2169068   177860.69
  16419.320   2.1108852  -1.2172893   178793.52
  16422.895   2.1123249  -1.2176964   179779.27
  16426.111   2.1108903  -1.2182704   180693.95
  16429.332   2.1061105  -1.2186532   181639.55
  16432.908    2.099087  -1.2194295   182456.08
  16436.129   2.0948023  -1.2198752   183567.52
  16439.711   2.0933403  -1.2203565   184554.89
  16443.291   2.0938574  -1.2209047   185354.17
  16446.518   2.0934453  -1.2214094   186378.39
  16450.104   2.0957209  -1.2217592   187157.53
  16453.689   2.1010861    -1.22231   188299.59
  16457.277   2.1080916  -1.2226796   189141.58
  16460.510   2.1141642  -1.2231007   190189.48
  16464.100   2.1160476  -1.2235968   191115.31
  16467.695   2.1113699  -1.2241352   192076.08
  16471.289   2.1018546  -1.2247362   192950.75
  16474.885     2.09325  -1.2250627   193870.36
  16478.842   2.0857079  -1.2256884   194684.87
  16482.441   2.0829898  -1.2264218   195674.33
  16486.043   2.0816327  -1.2260742    196643.7
  16489.646   2.0809886   -1.225915      197390
  16493.611   2.0802097  -1.2261326    198236.2
  16497.217   2.0791291  -1.2262956   199228.36
  16500.826   2.0796047  -1.2270267   200129.42
  16504.797   2.0821441  -1.2279177   201173.41
  16508.406   2.0840959  -1.2284579   201925.31
  16512.381   2.0830509  -1.2290294   202827.14
  16516.357   2.0805192  -1.2295441   203567.91
  16519.975   2.0790464  -1.2301737   204567.58
  16523.953   2.0772185   -1.230762   205586.19
  16527.936   2.0765332  -1.2315129   206293.72
  16531.920   2.0762933  -1.2319076   207004.17
  16535.906   2.0777469  -1.2324176   208281.55
  16539.531   2.0787518  -1.2327234   209227.84
  16543.520   2.0771336  -1.2331538   210359.06
  16547.875   2.0758537  -1.2338917    210999.2
  16551.867    2.074579  -1.2344841   211781.27
  16555.863   2.0704594  -1.2347986   212448.25
  16559.861   2.0670722  -1.2354673   213475.17
  16563.859   2.0661907  -1.2358003      214683
  16567.863   2.0630908  -1.2359509   215283.77
  16572.230   2.0604974  -1.2367925   216050.45
  16576.234   2.0569918  -1.2371807   216989.05
  16580.607   2.0532698  -1.2376819   217917.58
  16584.617   2.0514424  -1.2381858   218924.03
  16588.992   2.0523452   -1.238924   219779.41
  16593.008   2.0543402  -1.2393565    220525.7
  16597.387    2.055428  -1.2401977   221775.94
  16601.406   2.0556207  -1.2406905   222602.08
  16605.793   2.0539213  -1.2411117   222834.14
  16610.182   2.0507918  -1.2416892   224067.14
  16614.570   2.0507908   -1.242608   225055.05
  16618.963   2.0493541  -1.2429788   225826.89
  16622.992   2.0479841  -1.2433622   226486.66
  16627.389   2.0464244  -1.2441543   227170.33
  16631.789   2.0421033  -1.2448002   227815.94
  16636.191   2.0374759  -1.2451598   228588.47
  16640.963   2.0344734  -1.2459857   229430.92
  16645.369    2.033169  -1.2464908   230252.31
  16649.779   2.0348988  -1.2471796   231076.61
  16654.189   2.0377399  -1.2474122   231776.83
  16658.604   2.0391965  -1.2478787   232133.98
  16663.389   2.0374254  -1.2487054   232977.05
  16667.809   2.0333464  -1.2493805   233720.05
  16672.598   2.0288642  -1.2501232   234091.97
  16677.021   2.0255233  -1.2507854    234874.8
  16681.818   2.0234195  -1.2511897   235532.56
  16686.246    2.021255  -1.2518489   236564.25
  16691.047   2.0188018  -1.2522555   237144.86
  16695.480   2.0183658  -1.2528899   237937.39
  16700.287   2.0185497  -1.2533047   238906.86
  16705.096   2.0196968  -1.2536112   239866.23
  16709.908   2.0206556  -1.2549084   239876.53
  16714.723   2.0167336  -1.2555537   239852.77
  16719.170    2.015321  -1.2560351   241102.91
  16723.990     2.01181  -1.2564801   241877.98
  16728.813   2.0090136  -1.2571839   242511.98
  16733.639   2.0069651  -1.2581471   242897.91
  16738.840   2.0057462  -1.2592831   243259.75
  16743.670     2.00494  -1.2598171   244017.52
  16748.506   2.0032992  -1.2602532    244443.2
  16753.342   2.0025756  -1.2606331   245194.81
  16758.182   2.0013294  -1.2613402   245557.34
  16763.396   1.9996153  -1.2610926    246275.8
  16768.244   1.9974473  -1.2610986   246871.19
  16773.094   1.9943435  -1.2618866   247179.48
  16778.318   1.9912431  -1.2624807   247681.72
  16783.174   1.9891328  -1.2628503   248306.87
  16788.404   1.9866863  -1.2634496   248260.95
  16793.641   1.9846796  -1.2641714   248780.94
  16798.504   1.9838646  -1.2652239   248714.86
  16803.746   1.9812617  -1.2658867    249255.7
  16808.990    1.978687  -1.2659137   249762.48
  16813.863   1.9797432  -1.2667008   250009.17
  16819.115   1.9737156  -1.2678056   248985.78
  16824.369   1.9804233  -1.2688903   251143.33
  16829.627   1.9775084  -1.2699051   250971.78
  16834.887   1.9745926  -1.2705357   251389.17
  16840.152     1.97322  -1.2710525   251931.47
  16845.420   1.9724579  -1.2718033    252287.7
  16850.691   1.9717833  -1.2725053   252700.86
  16855.965   1.9691302  -1.2733741   252583.94
  16861.244   1.9654303  -1.2738049   253007.94
  16866.525   1.9616587  -1.2744276   253605.86
  16872.188   1.9596313  -1.2754478    253588.7
  16877.477    1.958748  -1.2756032   253548.48
  16882.768   1.9574362  -1.2762189   253668.17
  16888.441   1.9549676  -1.2769251   253881.78
  16893.740   1.9534276  -1.2778145   254314.33
  16899.041   1.9524148  -1.2782951    254251.8
  16904.727   1.9514343  -1.2792505   254605.17
  16910.416   1.9500513  -1.2801735   254580.48
  16915.729   1.9477581  -1.2809798   254533.72
  16921.424   1.9449226  -1.2817386   254983.87
  16926.744   1.9439407  -1.2823825   255364.95
  16932.447   1.9420047  -1.2831366   255444.95
  16938.154   1.9397481  -1.2839054   255517.87
  16943.865   1.9379933  -1.2842004   255258.73
  16949.582   1.9364189  -1.2851519    255336.5
  16955.301   1.9347482  -1.2853867    255582.2
  16960.643    1.934103   -1.286228   255638.81
  16966.371   1.9320971  -1.2870236   255547.36
  16972.100   1.9284141  -1.2873331   255645.83
  16977.836    1.925118  -1.2876501   255386.22
  16983.957   1.9230432  -1.2886276   255279.53
  16989.699   1.9205479  -1.2890989   255132.77
  16995.447   1.9178231  -1.2900492   255041.92
  17001.197   1.9183218  -1.2910596      255037
