# XDI/1.0 EXAFS Data Collector 1.1 AD.RGN
# Column.1: energy eV
# Column.2: mutrans
# Column.3: murefer
# Column.4: i0
# Beamline.name: SSRL 4-3
# Detector.I0: N2 15cm
# Detector.I1: N2+Ar 30cm
# Detector.I2: Ar
# Element.edge: K
# Element.symbol: Sr
# Mono.d_spacing: 1.920128
# Mono.name: Si(220)
# Mono.notes: (?) unfocussed, detuned 50%, clockwise at E=17000eV
# Sample.formula: SrTiO3
# Sample.name: strontium titanate
# Sample.prep: powder
# Sample.reference: SrCO3
# Sample.temperature: 10K
# Scan.start_time: 1995-06-16 03:59:08
# ///
#    Note: mono d_spacing is nominal!
#-------------
#   energy   mutrans      murefer      i0
  15699.933   1.7350211  -1.1377888    131545.7
  15710.044   1.7309821  -1.1388584    130947.7
  15719.844   1.7281201  -1.1398183    130280.7
  15729.982   1.7240756  -1.1409318    129642.7
  15740.136   1.7194742  -1.1417294    129058.7
  15749.973   1.7156442  -1.1427638    128320.7
  15760.152    1.706769  -1.1441086    125869.7
  15770.016   1.7071875  -1.1448658    127074.7
  15779.891   1.7045474  -1.1457463    126519.7
  15790.109   1.7009657  -1.1468386    125842.7
  15800.011   1.6966583  -1.1477513    125192.7
  15809.925   1.6931939  -1.1488021    124547.7
  15819.854   1.6888807  -1.1498518    123946.7
  15830.124   1.6858787  -1.1511224    123310.7
  15840.076   1.6814642  -1.1519313    122654.7
  15850.042   1.6778091  -1.1530089    121987.7
  15860.021   1.6736906  -1.1540884    121331.7
  15870.012   1.6694245  -1.1550256    120703.7
  15880.018   1.6656365  -1.1560793    120125.7
  15890.033   1.6620794  -1.1572015    119319.7
  15900.063    1.658065  -1.1581327    118610.7
  15910.108   1.6537621  -1.1591642    118038.7
  15920.164   1.6501963  -1.1604958    117321.7
  15929.896   1.6464746  -1.1614884    116688.7
  15939.978    1.642646  -1.1626781    115994.7
  15950.073   1.6383182  -1.1635725    115385.7
  15959.844   1.6347053  -1.1648599    114533.7
  15969.964   1.6311772  -1.1659194    113961.7
  15980.097   1.6274641  -1.1671091    113223.7
  15989.906   1.6244008  -1.1682084    112628.7
  16000.064   1.6203224   -1.169418    112023.7
  16009.897   1.6166338  -1.1703508    111394.7
  16020.082   1.6125588  -1.1715887    110625.7
  16029.942   1.6083889  -1.1728462    109850.7
  16040.152   1.6051705  -1.1738558    109268.7
  16050.036      1.6016  -1.1751627    108695.7
  16059.933   1.5975376  -1.1762756    107948.7
  16069.841   1.5945042  -1.1773404    107291.7
  16080.104   1.5904569  -1.1786869    106578.7
  16090.039   1.5870801   -1.179692    105852.7
  16099.984   1.5853088   -1.181175    105201.7
  16109.943   1.5838449  -1.1822965    104511.7
  16119.917   1.5868426  -1.1835959    103852.7
  16121.293   1.5875859  -1.1836293    103758.7
  16122.670   1.5894295  -1.1839706    103626.7
  16123.702   1.5899673  -1.1839485    103618.7
  16125.079   1.5915886  -1.1839441    103516.7
  16126.112   1.5940381  -1.1841251    103504.7
  16127.490   1.5984033  -1.1844485    103309.7
  16128.867   1.6043622  -1.1847202    103031.7
  16129.901   1.6103282  -1.1847029    103057.7
  16131.278   1.6230919  -1.1847917    102992.7
  16132.657   1.6457574  -1.1849847    102885.7
  16133.690   1.6680826  -1.1851249    102859.7
  16135.069   1.7105268  -1.1852191    102672.7
  16136.104   1.7615197  -1.1858533    102583.7
  16137.483     1.86332  -1.1857978    102497.7
  16138.861   1.9690936  -1.1864869    102470.7
  16139.897   2.0376944  -1.1869998    102411.7
  16141.276    2.149955   -1.187179    102285.7
  16142.657   2.2654026  -1.1881567    102007.7
  16143.692   2.2859845  -1.1881948    102053.7
  16145.073   2.2155299  -1.1876142    101930.7
  16146.108   2.1326028  -1.1873655    101850.7
  16147.490   2.0202023  -1.1871925    101736.7
  16148.871   1.9429545  -1.1872744    101585.7
  16149.907   1.9096445  -1.1871954    101531.7
  16151.289   1.8873198  -1.1873205    101468.7
  16152.670   1.8872594  -1.1878132    101112.7
  16153.707   1.8980408  -1.1877533    101087.7
  16155.090   1.9199871  -1.1878739   202132.41
  16155.779   1.9281135  -1.1879399   202007.36
  16156.473   1.9329929  -1.1877271   201654.25
  16157.162   1.9346029  -1.1878539   201812.05
  16157.854   1.9329346  -1.1880612   201812.78
  16158.547   1.9290961   -1.188046   201705.44
  16159.237   1.9256818  -1.1883103   201832.02
  16160.274   1.9205492  -1.1881865   201792.52
  16160.968   1.9188073  -1.1881527   201887.94
  16161.659   1.9174643    -1.18842    201865.3
  16162.695   1.9158215  -1.1883957   201842.56
  16163.389   1.9161835   -1.188612   201999.75
  16164.426   1.9186388  -1.1886143   201905.87
  16165.465   1.9258652  -1.1886827   201992.91
  16166.157   1.9327627  -1.1889435   202217.87
  16167.195   1.9465671  -1.1890865   202080.77
  16168.234   1.9648435  -1.1891698   201328.58
  16169.271   1.9744694  -1.1892117   201367.31
  16170.311   1.9816323    -1.18955   201457.97
  16171.349   1.9942769  -1.1896599   202088.55
  16172.388   2.0104285  -1.1897073   202787.05
  16173.428   2.0266247  -1.1898613   203645.47
  16174.466   2.0382516  -1.1898822   204243.83
  16175.506   2.0396282  -1.1899074   204584.09
  16176.545   2.0314468   -1.190185    204965.3
  16177.932   2.0074863  -1.1904547   205320.41
  16178.971   1.9842628  -1.1901832   205549.45
  16180.012   1.9627099  -1.1903047   205953.42
  16181.399   1.9420799  -1.1906243   206276.31
  16182.440   1.9348764  -1.1904019   206667.12
  16183.826   1.9356569  -1.1906651   207058.86
  16185.214   1.9458157  -1.1908577   207837.52
  16186.254   1.9571322  -1.1909577   208349.09
  16187.644    1.976305  -1.1912607   208803.61
  16189.030   1.9922633  -1.1914643   209567.03
  16190.419   1.9961847  -1.1916617   210029.39
  16191.809   1.9864939  -1.1916295   210481.66
  16193.197   1.9685966  -1.1918089   211157.86
  16194.587   1.9484842  -1.1921908   211688.98
  16195.976   1.9291667  -1.1921165   212490.03
  16197.366   1.9147838  -1.1924426      212785
  16198.755   1.9061274  -1.1922764   213766.89
  16200.493   1.9015709   -1.192742    214231.7
  16201.884   1.8999871  -1.1929585   215032.44
  16203.274   1.8974127  -1.1929208   215796.09
  16205.013   1.8923674  -1.1932388   216198.69
  16206.405   1.8896703  -1.1934103   216935.19
  16208.145   1.8898988  -1.1935763   218005.62
  16209.884   1.8975843  -1.1937229   218734.97
  16211.276   1.9078632  -1.1937792   219358.25
  16213.016   1.9254664  -1.1939676   220243.45
  16214.757   1.9413457  -1.1942024   221169.58
  16216.499   1.9522125  -1.1944048   221824.62
  16218.240   1.9589289  -1.1947537   222538.59
  16219.981   1.9609645  -1.1948677   223303.48
  16221.725   1.9598839  -1.1950797    224189.3
  16223.468   1.9584561  -1.1952518   225207.05
  16225.210   1.9590491  -1.1954042    225841.7
  16226.954   1.9628865  -1.1957103    226721.3
  16228.698   1.9650924  -1.1959074    227596.8
  16230.792   1.9591835  -1.1962156   228458.23
  16232.535   1.9463556  -1.1963039   228770.59
  16234.281   1.9305723  -1.1965469   229119.87
  16236.376   1.9163573  -1.1969544   229517.08
  16238.122    1.909328  -1.1970899    230158.2
  16240.217   1.9044936  -1.1973594   230802.25
  16242.313   1.9009029  -1.1975827   231508.22
  16244.061   1.9000085  -1.1978606   232993.12
  16246.159   1.8969421  -1.1979583   234745.94
  16248.257   1.8930215  -1.1981659   236980.67
  16250.354   1.8871181  -1.1983806   238964.34
  16252.454   1.8811543  -1.1985765   240999.94
  16254.553   1.8792937  -1.1990292   242508.44
  16256.653   1.8825542  -1.1994415   244132.87
  16258.753   1.8869028  -1.1997276   245214.23
  16260.855   1.8890402  -1.1997594   246139.52
  16262.957   1.8901263  -1.2000382   246840.72
  16265.059   1.8934829  -1.2003156   247633.86
  16267.162   1.9003736  -1.2006653   248358.91
  16269.616   1.9104235  -1.2009568   248984.87
  16271.719   1.9185109  -1.2011463   249993.78
  16274.174   1.9242255  -1.2012971   251400.59
  16276.280   1.9267738  -1.2016998   253121.34
  16278.736   1.9279667  -1.2019303   254923.02
  16280.844   1.9249503  -1.2022379   256513.59
  16283.301   1.9165907  -1.2024692   258477.11
  16285.760   1.9054502  -1.2029176   259693.55
  16288.220   1.8939595  -1.2032113   261071.91
  16290.328   1.8848758  -1.2035609   262391.19
  16292.790   1.8758666  -1.2038622   263534.41
  16295.252   1.8714001  -1.2040349   264547.53
  16297.715   1.8716672  -1.2045339   266032.59
  16300.179   1.8729183  -1.2049448   267462.56
  16302.994   1.8739768  -1.2052905   268817.47
  16305.459   1.8752677  -1.2054878   270224.28
  16307.925   1.8785666  -1.2058496   271604.03
  16310.392   1.8821781  -1.2061674   273153.69
  16313.211   1.8849554  -1.2065727   274804.28
  16315.680   1.8829323  -1.2067069   276149.81
  16318.148   1.8761403  -1.2070137   277565.25
  16320.972   1.8675581  -1.2074931   279148.62
  16323.442   1.8626468  -1.2077375   280479.91
  16326.268   1.8631525  -1.2080182   281949.09
  16329.092     1.86858  -1.2084395   283554.25
  16331.564   1.8725845  -1.2086242   284964.28
  16334.393   1.8749452  -1.2089635   286849.28
  16337.221   1.8744565  -1.2093816   287939.19
  16340.050    1.873627  -1.2097324      289144
  16342.881   1.8761618  -1.2102086   290658.75
  16345.713   1.8784315  -1.2105781   292317.44
  16348.544   1.8774247  -1.2109118   293628.03
  16351.378   1.8724748  -1.2111992   295114.53
  16354.211    1.865042  -1.2116549   296856.97
  16357.047   1.8562515  -1.2122095   298414.34
  16360.238   1.8466499  -1.2126241   299817.62
  16363.076   1.8396794  -1.2128371   301487.84
  16365.914   1.8366958  -1.2132674   302761.97
  16369.107    1.838705  -1.2136781   304453.03
  16371.948   1.8425271  -1.2141461      306143
  16375.146   1.8460584  -1.2144686   307814.91
  16377.989    1.847221  -1.2148746   309383.75
  16381.188   1.8457907  -1.2151981    310973.5
  16384.389   1.8449949  -1.2158138   312294.16
  16387.234   1.8459526  -1.2160905   313617.78
  16390.438   1.8488905  -1.2165178   315256.28
  16393.641   1.8493705  -1.2168987   316504.72
  16396.848   1.8472644  -1.2174638   318468.09
  16400.055   1.8420488  -1.2178018   319931.37
  16403.262   1.8369741    -1.21819   321503.59
  16406.471   1.8327184  -1.2186736   322909.75
  16409.684   1.8290104  -1.2191134   324238.81
  16412.895   1.8266696  -1.2196236   325973.78
  16416.107   1.8259993  -1.2198953   327097.69
  16419.320   1.8271891  -1.2203993   328768.53
  16422.895   1.8272774  -1.2207819   329780.28
  16426.111    1.825382  -1.2213907   331575.94
  16429.332   1.8202299   -1.221897   333427.56
  16432.908    1.813084  -1.2226418   335000.06
  16436.129   1.8085497  -1.2229571   336668.53
  16439.711   1.8072978  -1.2234542   338183.87
  16443.291   1.8067322  -1.2239401   339489.19
  16446.518   1.8062793  -1.2242265   341275.41
  16450.104   1.8083343  -1.2247471   342493.53
  16453.689   1.8137118  -1.2253418   343975.59
  16457.277   1.8199897  -1.2256789   345311.59
  16460.510    1.825078  -1.2259369    347007.5
  16464.100   1.8250576  -1.2264616   348243.31
  16467.695    1.818727  -1.2268997   349863.06
  16471.289   1.8081055  -1.2273549   351510.75
  16474.885    1.798664  -1.2277162   353386.34
  16478.842   1.7902859  -1.2283044   354434.87
  16482.441   1.7865952  -1.2288465   356651.31
  16486.043   1.7853678  -1.2292932   358586.69
  16489.646   1.7846602   -1.229799      359977
  16493.611   1.7835156  -1.2302874   361415.22
  16497.217   1.7823115  -1.2309563   362762.34
  16500.826   1.7821309  -1.2311774   364252.41
  16504.797   1.7833523  -1.2315045   365576.41
  16508.406     1.78364  -1.2319916   367423.31
  16512.381   1.7810031  -1.2326014   368869.16
  16516.357   1.7785069  -1.2331288   370261.91
  16519.975   1.7768914  -1.2336706   371830.59
  16523.953   1.7742598  -1.2340787   373214.19
  16527.936   1.7729044  -1.2346285   374971.72
  16531.920   1.7721228  -1.2351879   376210.16
  16535.906   1.7736856  -1.2357321   377589.53
  16539.531   1.7738087  -1.2362241   379027.84
  16543.520   1.7717718  -1.2367112   380498.06
  16547.875   1.7696648  -1.2372047   381728.19
  16551.867   1.7674794  -1.2377352   383073.28
  16555.863   1.7642496  -1.2381668   384219.25
  16559.861   1.7601594  -1.2387611   385830.16
  16563.859   1.7585502  -1.2392894      387629
  16567.863   1.7554894  -1.2398644   389399.75
  16572.230   1.7522323  -1.2402755   390819.44
  16576.234   1.7476726  -1.2408353   391887.06
  16580.607   1.7438992  -1.2414234   393102.59
  16584.617   1.7421645  -1.2421612   394297.03
  16588.992   1.7426731  -1.2428528   395214.41
  16593.008   1.7443537  -1.2435113   396699.72
  16597.387   1.7451922  -1.2439958   397967.94
  16601.406   1.7448443  -1.2443916   399457.06
  16605.793   1.7437611  -1.2450993   400221.16
  16610.182   1.7422397  -1.2457691   402263.12
  16614.570   1.7402946  -1.2462862   403357.06
  16618.963   1.7383113  -1.2467853   404730.87
  16622.992   1.7365636  -1.2472231   406181.66
  16627.389    1.733686  -1.2477754   406899.34
  16631.789   1.7281383  -1.2485975   407715.94
  16636.191   1.7235029  -1.2489353   409253.47
  16640.963   1.7197348  -1.2496552   410068.94
  16645.369   1.7177564  -1.2497617   411006.31
  16649.779   1.7189847  -1.2504104   412089.59
  16654.189   1.7211222  -1.2509132   413326.84
  16658.604   1.7223493  -1.2514951   414827.97
  16663.389   1.7185562  -1.2521817   415234.06
  16667.809   1.7133678  -1.2527704   415950.03
  16672.598   1.7078808  -1.2534263   416919.97
  16677.021   1.7043436  -1.2539676   417983.81
  16681.818   1.7016167  -1.2546364   418672.56
  16686.246   1.6984203  -1.2551163   419709.25
  16691.047   1.6952309  -1.2557841   419827.87
  16695.480   1.6941114  -1.2564305   420849.41
  16700.287   1.6946741  -1.2568488   421265.84
  16705.096   1.6959103  -1.2574397   422157.22
  16709.908   1.6944549  -1.2580567   422266.53
  16714.723   1.6900718  -1.2587926   422407.75
  16719.170   1.6869994  -1.2592791   424022.91
  16723.990   1.6832555  -1.2599368   425251.97
  16728.813   1.6805804  -1.2605449   426051.97
  16733.639   1.6780674  -1.2610832   426752.91
  16738.840   1.6762296  -1.2617591   427484.75
  16743.670   1.6747161   -1.262401    427614.5
  16748.506   1.6726255  -1.2630061   427991.19
  16753.342    1.671492  -1.2636896   429215.81
  16758.182   1.6690826  -1.2641891   428996.34
  16763.396   1.6676716  -1.2648514   429192.81
  16768.244   1.6656509  -1.2654613   430120.19
  16773.094   1.6618694  -1.2660549    431105.5
  16778.318   1.6578169  -1.2666625   431576.72
  16783.174   1.6550705  -1.2674054   432454.87
  16788.404   1.6525042  -1.2680424   432838.94
  16793.641    1.649982  -1.2686678   432882.94
  16798.504   1.6477859  -1.2692657   433755.87
  16803.746    1.645106  -1.2699194   434365.72
  16808.990   1.6432052  -1.2705179   435023.47
  16813.863   1.6446598  -1.2711582   434888.16
  16819.115   1.6404222  -1.2718409   435501.78
  16824.369   1.6418113  -1.2725151   436662.31
  16829.627   1.6373745  -1.2731628   437209.78
  16834.887   1.6341561  -1.2737718   437908.16
  16840.152   1.6322099  -1.2744585   438086.47
  16845.420   1.6311874  -1.2750248   438181.72
  16850.691   1.6290013  -1.2755082   438153.84
  16855.965   1.6258844  -1.2762513   438747.94
  16861.244   1.6224968  -1.2768906   439761.94
  16866.525    1.618799  -1.2776891   439854.87
  16872.188   1.6156108  -1.2784158   439445.72
  16877.477    1.614364  -1.2791459   439269.47
  16882.768   1.6120892  -1.2797604   439634.16
  16888.441    1.609712  -1.2803994   440569.78
  16893.740   1.6082392  -1.2811382   440504.31
  16899.041   1.6061618  -1.2818476   439797.78
  16904.727   1.6049969  -1.2825965   440538.19
  16910.416   1.6019216  -1.2831607    439942.5
  16915.729    1.598627  -1.2838095   439981.72
  16921.424   1.5959528   -1.284355   440352.87
  16926.744   1.5937074  -1.2850032   440567.97
  16932.447   1.5916305    -1.28569   440848.97
  16938.154   1.5892818  -1.2863522   440261.87
  16943.865   1.5877238  -1.2870114   440247.72
  16949.582   1.5861249  -1.2878176    440287.5
  16955.301   1.5849207  -1.2885749   439909.19
  16960.643   1.5838643  -1.2892879   439946.81
  16966.371   1.5808943  -1.2899653   439589.37
  16972.100   1.5772455  -1.2905371   439517.81
  16977.836   1.5735884  -1.2912903   439866.22
  16983.957   1.5701784  -1.2920753   439497.53
  16989.699   1.5676246  -1.2927263   439228.75
  16995.447   1.5647032  -1.2933783   438380.91
  17001.197   1.5639038  -1.2939572      438516
