# XDI/1.0
# Column.1: energy eV
# Column.2: i0
# Column.3: itrans
# Beamline.name: APS 20-BM-B
# Beamline.notes: vert slits = unknown
# Detector.I0: N2 15cm
# Detector.I1: N2 15cm
# Element.edge: K
# Element.symbol: Fe
# Mono.d_spacing: 3.13550
# Mono.name: Si(111)
# Mono.notes: unfocussed, detuned 50%
# Sample.formula: Fe2O3
# Sample.name: Fe2O3 powder  Room Temperature
# Sample.prep: powder on tape, 16 layers
# Sample.reference: none
# Sample.temperature: Room Temperature
# Scan.start_time: 2001-08-10 11:45:00
# ///
#    Note: mono d_spacing is nominal!
#     data from NXS school, 2001
#     412 E XMU I0
#-------------
#   energy   i0   itrans
    6911.8277  272002.000000  121091.203452
    6916.9236  270032.000000  120826.202549
    6921.7638  268827.000000  120841.202789
    6926.8750  267514.000000  120853.203083
    6931.7907  255214.000000  115822.202582
    6937.0396  277373.000000  126550.202959
    6941.8277  276310.000000  126659.203657
    6946.9188  275026.000000  126707.203268
    6951.9563  274820.000000  127226.202973
    6956.9913  274055.000000  127511.202843
    6961.9928  274313.000000  128218.202577
    6966.8992  274122.000000  128744.202933
    6971.9362  274012.000000  129304.203000
    6976.8778  273903.000000  129874.202530
    6982.0124  273774.000000  130465.203129
    6986.8966  273717.000000  131036.203278
    6991.9328  273771.000000  131661.203177
    6996.9144  273744.000000  132310.203629
    7001.8411  273682.000000  132819.203127
    7006.9934  273613.000000  133434.203576
    7011.8412  273571.000000  134044.202637
    7016.9359  273530.000000  134647.202783
    7021.8608  273493.000000  135246.203540
    7026.8451  273339.000000  135788.203289
    7031.9521  273200.000000  136352.203216
    7036.8151  273094.000000  136907.203316
    7041.8531  273100.000000  137520.203173
    7046.8251  273055.000000  138134.203275
    7051.7728  273038.000000  138725.203014
    7056.8648  272926.000000  139286.203768
    7061.8167  272878.000000  139874.203026
    7066.7017  272719.000000  140377.203624
    7071.7739  272679.000000  140929.203182
    7076.7369  272487.000000  141419.202445
    7081.6860  272240.000000  141831.203133
    7086.7913  271944.000000  142203.203145
    7091.5419  271377.000000  142369.203502
    7096.5766  269032.000000  141581.202485
    7101.5760  233593.000000  123222.203090
    7101.9502  241415.000000  127309.202684
    7102.2817  250354.000000  132004.203434
    7102.6987  262542.000000  138456.202646
    7103.1906  271114.000000  142986.203507
    7103.6399  273653.000000  144388.203577
    7104.0036  274140.000000  144616.202626
    7104.2818  274237.000000  144654.202810
    7104.6134  274276.000000  144660.203573
    7105.0736  274202.000000  144619.202900
    7105.5123  274103.000000  144584.203087
    7105.8763  274067.000000  144544.202733
    7106.2295  273949.000000  144464.203133
    7106.5614  273943.000000  144409.202774
    7107.0539  273839.000000  144340.202770
    7107.5143  273788.000000  144259.203284
    7107.9427  273727.000000  144155.203224
    7108.3069  273623.000000  144026.202747
    7108.5961  273590.000000  143966.203681
    7108.9497  273576.000000  143813.202498
    7109.4854  273456.000000  143539.203270
    7109.9247  273401.000000  143288.203613
    7110.2677  273327.000000  142994.202945
    7110.6107  273273.000000  142631.202516
    7110.9858  273230.000000  142011.203352
    7111.4575  273134.000000  140616.203379
    7111.9079  273116.000000  138426.203009
    7112.3475  273037.000000  135453.203242
    7112.6585  272990.000000  132720.202875
    7112.9374  272954.000000  130228.203469
    7113.3558  272875.000000  128830.203431
    7113.8171  272865.000000  130091.203178
    7114.2355  272838.000000  131978.203303
    7114.5789  272794.000000  133281.202614
    7114.8901  272826.000000  133719.202736
    7115.2980  272779.000000  133680.203093
    7115.7917  272740.000000  133378.202480
    7116.2212  272758.000000  133175.202742
    7116.6506  272686.000000  132994.202902
    7116.9620  272664.000000  132866.202807
    7117.2413  272587.000000  132675.203058
    7117.7461  272623.000000  132176.203629
    7118.2080  272490.000000  131280.203405
    7118.6055  272448.000000  129876.202750
    7118.9493  272395.000000  128162.202503
    7119.2716  272362.000000  126239.203013
    7119.7338  272328.000000  122347.203388
    7120.1744  272323.000000  117696.202766
    7120.6259  272228.000000  112392.203420
    7121.0237  272144.000000  106915.203324
    7121.3032  272163.000000  102025.203053
    7121.6151  272149.000000  95655.204893
    7122.0667  272151.000000  88665.207155
    7122.5292  272115.000000  83283.201907
    7122.9057  272063.000000  79094.200786
    7123.2284  272072.000000  76052.206885
    7123.5620  272008.000000  72985.199764
    7124.0354  271977.000000  68873.204895
    7124.4982  271940.000000  64585.198150
    7124.9502  271971.000000  60256.198272
    7125.3270  271934.000000  56154.200661
    7125.6176  271894.000000  52328.197999
    7125.9514  271921.000000  47527.200200
    7126.4898  271883.000000  42781.198843
    7126.9421  271778.000000  39710.199004
    7127.2975  271574.000000  37725.198337
    7127.6207  271428.000000  36413.198710
    7127.9547  271247.000000  35139.197486
    7128.4718  271435.000000  33550.199174
    7128.8921  271483.000000  32094.199803
    7129.3339  271502.000000  30479.200673
    7129.7004  271482.000000  28925.198593
    7129.9591  271442.000000  27470.200215
    7130.3472  271330.000000  25347.198022
    7130.8108  271290.000000  23661.199613
    7131.2529  271271.000000  22412.199277
    7131.5872  271227.000000  21640.200272
    7131.9107  271228.000000  21278.198322
    7132.2883  271246.000000  21253.199701
    7132.8061  271227.000000  21776.199528
    7133.2268  271231.000000  22542.198833
    7133.6369  271252.000000  23429.199307
    7134.0038  271186.000000  24288.199918
    7134.2844  271221.000000  25172.199389
    7134.7378  271245.000000  26477.199635
    7135.2236  271195.000000  27449.199882
    7135.6554  271199.000000  28163.200213
    7135.9794  271169.000000  28619.200615
    7136.2925  271165.000000  28963.198061
    7136.7138  271179.000000  29332.197968
    7137.1998  271145.000000  29622.198605
    7137.6211  271113.000000  29874.199298
    7138.0317  271145.000000  30131.198595
    7138.3451  271024.000000  30338.197977
    7138.6477  271084.000000  30653.199217
    7139.0583  271088.000000  31098.198499
    7139.5447  271041.000000  31583.198967
    7139.9339  271083.000000  32057.198074
    7140.2691  271066.000000  32557.199717
    7140.5718  271005.000000  33047.197631
    7141.0476  270977.000000  33851.199905
    7141.5127  271006.000000  34532.197886
    7141.9454  271050.000000  35154.200235
    7142.3240  270983.000000  35603.198819
    7142.6702  271034.000000  35964.199102
    7142.9840  270977.000000  36263.199764
    7143.4818  270941.000000  36479.198171
    7143.9472  270888.000000  36465.198913
    7144.3477  270977.000000  36362.199015
    7144.6508  270935.000000  36187.199080
    7144.9864  270901.000000  35987.200749
    7145.4736  270914.000000  35741.197939
    7145.9068  270947.000000  35579.197593
    7146.1018  270877.000000  35527.197976
    7147.1200  272298.470000  35963.048504
    7148.3769  273525.530000  37601.436822
    7149.4717  274844.160000  39863.361589
    7150.7837  276131.340000  42411.787136
    7151.9769  277400.060000  44449.722731
    7153.2139  278652.280000  45965.149799
    7154.5491  279860.030000  47425.041236
    7155.7110  281044.280000  48707.408170
    7157.0906  282313.000000  50292.224593
    7158.3947  283426.190000  51740.479103
    7159.6993  284618.840000  52857.170610
    7161.1566  285766.970000  53629.280049
    7162.4078  286944.500000  53872.800266
    7163.8881  288030.500000  53784.723515
    7165.2710  289121.880000  53459.038723
    7166.6108  290201.690000  52989.737568
    7168.1583  291259.910000  52294.809952
    7169.6847  292302.500000  51295.248443
    7171.0808  293435.500000  50252.045552
    7172.6085  294492.880000  48980.204477
    7174.1914  295499.590000  47528.700488
    7175.6986  296532.690000  46619.535280
    7177.2393  297604.120000  46178.695111
    7178.9665  298538.940000  45636.177883
    7180.5742  299464.060000  45057.989258
    7182.1499  300243.530000  44597.103458
    7183.7044  300498.310000  44304.521176
    7185.4896  281419.440000  41424.240361
    7187.2538  302878.840000  44625.250680
    7188.9641  304578.590000  45003.548809
    7190.6095  305657.620000  45363.131183
    7192.3324  306683.970000  45801.992919
    7194.1880  307643.560000  46333.119998
    7196.0776  308632.470000  46945.513947
    7197.8912  309592.660000  47608.181819
    7199.6288  310460.120000  48234.091092
    7201.3782  311357.880000  48938.264233
    7203.3598  312257.880000  49713.686867
    7205.3866  313188.120000  50515.349084
    7207.2823  314034.660000  51255.255648
    7209.1680  314883.440000  51884.393340
    7211.1430  315737.440000  52404.768135
    7213.0860  316727.720000  52784.367529
    7215.0633  317651.220000  53016.192641
    7217.0748  318602.970000  53182.240715
    7219.0654  319474.940000  53265.499661
    7221.2342  320296.120000  53336.976996
    7223.3490  321155.560000  53385.667781
    7225.4762  322092.220000  53508.568612
    7227.5492  322905.090000  53737.669768
    7229.7234  323824.160000  54149.971786
    7231.9322  324695.470000  54710.471580
    7234.0980  325614.970000  55392.162340
    7236.2540  326486.690000  56122.049930
    7238.5003  327499.590000  56969.122080
    7240.7926  317802.720000  55982.392010
    7243.0419  324367.000000  57873.841261
    7245.2369  327901.530000  59103.464868
    7247.5448  326912.220000  59323.267271
    7249.9100  330122.090000  60017.258092
    7252.2657  330961.160000  60021.415714
    7254.4777  331692.410000  59871.737371
    7256.9147  332518.840000  59579.235764
    7259.2304  333302.470000  59202.898156
    7261.6819  334055.250000  58782.723779
    7263.9671  334819.220000  58459.712652
    7266.4108  335600.340000  58198.861210
    7268.9235  336354.620000  58113.170218
    7271.3819  337018.090000  58167.635467
    7273.9319  337986.750000  58359.251239
    7276.5175  337914.530000  58469.017215
    7279.1163  338759.470000  58810.936207
    7281.5255  339357.590000  59251.001877
    7284.1619  339851.880000  59765.213379
    7286.6986  339970.280000  60304.570810
    7289.2034  338239.840000  60599.062923
    7291.9246  339493.590000  61525.699533
    7294.6704  343904.440000  63029.478401
    7297.3845  343559.470000  63596.397536
    7299.9196  341957.620000  63840.437823
    7302.5924  345273.940000  64920.622475
    7305.3353  346102.410000  65494.941714
    7308.1258  346795.970000  65989.380285
    7310.9638  347440.720000  66413.959015
    7313.6792  348088.560000  66757.665535
    7316.3739  348708.560000  66964.491528
    7319.1503  348867.690000  67000.443487
    7322.1113  349570.970000  67086.524895
    7325.0177  350435.340000  67210.716742
    7327.7210  351101.880000  67323.040808
    7330.5636  350881.530000  67391.476273
    7333.6712  351337.310000  67721.029480
    7336.4270  353117.190000  68427.704888
    7339.2995  353724.220000  68968.492507
    7342.4148  354248.380000  69567.388780
    7345.3495  354734.620000  70196.402314
    7348.3210  355110.030000  70811.526075
    7351.3754  356458.530000  71639.765774
    7354.4210  356814.160000  72196.111421
    7357.4462  357453.880000  72741.557181
    7360.5315  357994.720000  73206.106359
    7363.6426  358525.690000  73604.783525
    7366.7565  359138.750000  73912.547520
    7369.9192  359697.940000  74177.422411
    7373.0501  357296.250000  73805.390400
    7376.1838  360540.620000  74675.467699
    7379.5287  361153.160000  75059.650265
    7382.6217  361438.750000  75383.920351
    7385.7406  350053.470000  73236.286419
    7389.1990  363692.310000  76282.763464
    7392.3237  363935.250000  76497.324564
    7395.6489  364442.250000  76759.994745
    7398.9772  364881.410000  77049.748426
    7402.1221  365490.620000  77453.597522
    7405.6081  366148.970000  77957.536332
    7408.8056  366636.380000  78462.567718
    7412.3449  367157.910000  79056.700905
    7415.6655  367637.530000  79663.911576
    7419.0593  368127.250000  80287.220910
    7422.4681  368694.060000  80932.606874
    7425.9741  369290.970000  81581.087959
    7429.3895  368764.970000  81947.656120
    7432.8904  370326.030000  82743.302945
    7436.4419  336964.220000  75715.050063
    7439.8202  368999.500000  83255.866015
    7443.5200  370701.840000  83988.776240
    7446.9758  371376.310000  84431.753843
    7450.6003  371978.840000  84864.831316
    7454.2757  372590.470000  85283.984408
    7457.7656  373195.160000  85746.211128
    7461.4839  373804.970000  86271.525071
    7465.0757  374355.840000  86804.910177
    7468.8491  374907.810000  87369.378053
    7472.4363  375410.840000  87895.929877
    7476.1222  375837.970000  88437.547033
    7479.7167  376291.190000  88949.250247
    7483.6962  376846.470000  89498.025459
    7487.3341  377285.840000  89991.875717
    7491.1786  377713.310000  90532.804773
    7494.9197  378177.840000  91043.795609
    7498.6167  378522.440000  91535.864550
    7502.6771  378859.120000  92075.014604
    7506.3820  379197.880000  92571.227909
    7510.2590  379508.720000  93079.519312
    7514.1400  379971.620000  93639.871067
    7517.8929  380447.620000  94203.299438
    7521.9990  380834.690000  94715.806395
    7525.8927  381289.810000  95242.363936
    7529.7181  381793.030000  95715.998265
    7533.7288  382161.310000  96208.700653
    7537.7561  382520.660000  96696.466881
    7541.6304  382651.090000  97105.312147
    7545.8241  382084.590000  97409.215765
    7549.8162  350858.160000  89958.183918
    7553.6426  385316.810000  99199.212824
    7557.9231  385713.500000  99850.310138
    7562.0017  385856.280000  100402.476022
    7565.9384  386082.120000  100918.705122
    7570.2701  386497.030000  101511.001691
    7574.3746  386773.000000  102047.343507
    7578.5205  387189.060000  102650.765506
    7582.5364  387565.190000  103221.242176
    7586.9491  387968.340000  103836.769110
    7591.1338  388425.590000  104448.373928
    7595.2619  388721.910000  105027.036097
    7599.5915  389235.280000  105660.760961
    7603.8893  389522.690000  106236.529415
    7608.2168  389878.190000  106806.379406
    7612.3518  390158.750000  107355.269217
    7616.6645  390599.380000  107962.217844
    7621.1185  390987.060000  108602.232547
    7625.5531  391300.810000  109214.299139
    7629.8318  389926.620000  109337.416775
    7634.2023  391989.470000  110458.609617
    7638.6776  391487.410000  110877.851289
    7643.2206  390078.380000  111028.141176
    7647.7817  393087.440000  112429.491255
    7652.3109  393414.530000  113081.900536
    7656.8207  393745.690000  113751.352065
    7661.2734  393987.940000  114354.869038
    7666.0323  394289.190000  115014.433000
    7670.6592  394662.530000  115685.042242
    7675.4050  395170.940000  116367.726229
    7680.0186  395495.380000  116983.442270
    7684.7512  395843.880000  117628.222168
    7689.4268  396105.440000  118275.061139
    7694.1462  396509.030000  118945.941298
    7698.9853  393240.720000  118517.869117
    7703.7675  396909.440000  120185.855905
    7708.6319  397312.220000  120923.887647
    7713.4138  397575.030000  121585.968348
    7718.3035  397872.940000  122290.102098
    7723.0979  398133.880000  122997.278687
    7727.9748  398450.840000  123656.508371
    7732.7178  398733.880000  124365.788068
    7737.6968  399076.000000  125108.126443
    7742.6056  399353.120000  125837.493201
    7747.6490  399552.310000  126531.918349
    7752.5838  399844.560000  127248.398716
    7757.6407  400165.880000  127985.920419
    7762.6015  400486.220000  128712.490210
    7767.6719  400722.590000  129457.092267
    7772.6718  400982.060000  130175.753599
    7777.7429  401374.560000  130957.462428
    7782.7562  401672.090000  131666.216763
    7787.8409  401786.690000  132371.998031
    7792.8807  402001.310000  133059.839398
    7797.9921  402235.030000  133803.735992
    7803.0195  401863.750000  134306.674512
    7808.1707  402613.530000  135218.639360
    7813.3029  402831.380000  135947.660511
    7818.4682  403116.250000  136717.722685
    7823.6928  403360.160000  137489.831289
    7828.8592  403637.160000  138253.969933
    7834.1113  403795.160000  138988.169733
    7839.3445  403930.220000  139759.409438
    7844.6769  404047.310000  140484.684409
    7849.9378  403983.470000  141150.000929
    7855.2587  404477.690000  142040.365383
    7860.6531  404349.910000  142681.763032
    7866.0023  405062.190000  143649.199218
    7871.4385  404111.530000  144012.687627
    7876.8161  406336.910000  145529.212997
    7882.2810  406089.310000  146159.780572
    7887.6474  406101.780000  146875.386714
    7893.1678  406258.280000  147658.033380
    7898.5362  406263.840000  148369.710203
    7904.0590  406563.410000  149181.458459
    7909.4427  406609.060000  149900.217082
    7915.0214  406831.720000  150732.016592
    7920.4206  407015.440000  151511.860777
    7926.0153  407232.190000  152315.750808
    7931.4569  407437.000000  153143.671394
    7937.0678  407619.810000  153966.624013
    7942.5520  407631.690000  154690.625238
    7948.2602  407868.620000  155552.653612
    7953.8415  403584.590000  154668.733464
    7959.6342  408240.560000  157238.842394
    7965.2863  407924.620000  157877.982565
    7971.1098  408833.690000  159014.173130
    7976.7244  400703.810000  156620.389457
    7982.5106  408819.970000  160536.656835
    7988.1964  409027.160000  161409.954470
    7993.9315  409171.410000  162248.283082
    7999.5931  409229.660000  163065.642481
    8005.3588  409346.970000  163926.047102
    8011.2979  409372.340000  164743.483488
    8017.1911  409417.720000  165557.953403
    8023.1207  409473.160000  166404.469466
    8028.9078  409806.590000  167338.014660
    8034.7725  410006.090000  168256.592959
    8040.4939  409876.620000  169024.201292
    8046.4731  410089.220000  169924.844102
    8052.4337  410268.810000  170838.529593
    8058.4451  410359.470000  171729.235060
    8064.3823  410553.160000  172653.001940
    8070.3425  408778.880000  172695.782544
    8076.2280  410735.620000  174381.592302
    8082.2342  410861.410000  175312.438635
    8084.2337  410812.220000  175576.594650
