# XDI/1.0
# Column.1: energy eV
# Column.2: i0
# Column.3: itrans
# Beamline.name: APS 20-BM
# Beamline.notes: vert slits = unknown
# Detector.I0: N2 15cm
# Detector.I1: N2 15cm
# Element.edge: K
# Element.symbol: Fe
# Mono.d_spacing: 3.13550
# Mono.name: Si(111)
# Mono.notes: unfocussed, detuned 50%
# Sample.formula: FeO
# Sample.name: FeO powder  Room Temperature
# Sample.prep: powder on tape, 4 layers
# Sample.reference: none
# Sample.temperature: Room Temperature
# Scan.start_time: 2001-08-10 11:10:00
# ///
#    Note: mono d_spacing is nominal!
#     data from NXS school, 2001
#     412 E XMU I0
#-------------
#   energy   i0   itrans
    6911.7671  280101.000000  290366.187637
    6916.8730  278863.000000  289977.187414
    6921.7030  278149.000000  290136.187360
    6926.8344  277292.000000  290103.187479
    6931.7399  265707.000000  278595.187387
    6936.9887  286669.000000  301917.187466
    6941.7869  285989.000000  301961.187391
    6946.8779  284661.000000  301519.187598
    6951.9154  284411.000000  302120.187512
    6956.9401  283577.000000  302167.187512
    6961.9621  283824.000000  303265.187420
    6966.8684  283568.000000  303950.187573
    6971.9156  283397.000000  304638.187353
    6976.8572  283310.000000  305481.187545
    6981.9918  283214.000000  306229.187580
    6986.8759  283061.000000  306938.187639
    6991.9328  282971.000000  307721.187587
    6996.9144  283022.000000  308670.187388
    7001.8515  282885.000000  309435.187431
    7006.9934  282810.000000  310281.187585
    7011.8412  282732.000000  311023.187567
    7016.9463  282596.000000  311819.187592
    7021.8712  282484.000000  312561.188064
    7026.8765  282375.000000  313268.188140
    7031.9730  282225.000000  314010.186086
    7036.8361  282119.000000  314744.188138
    7041.8952  282087.000000  315530.185965
    7046.8567  282034.000000  316357.186115
    7051.8254  282011.000000  317160.186765
    7056.8965  281905.000000  317924.188924
    7061.8378  281847.000000  318600.188941
    7066.7546  281772.000000  319289.186628
    7071.8057  281634.000000  319901.186408
    7076.7476  281516.000000  320463.188833
    7081.6860  281309.000000  320876.187273
    7086.7913  281051.000000  321085.186853
    7091.5312  280416.000000  320763.186745
    7096.5552  277908.000000  317955.187700
    7101.5653  240033.000000  275002.187970
    7101.9395  247919.000000  284665.187768
    7102.2817  257073.000000  295257.188296
    7102.6987  270033.000000  309588.186520
    7103.1906  279482.000000  319436.188161
    7103.6399  282387.000000  322348.188014
    7104.0036  283089.000000  322984.187151
    7104.2818  283283.000000  323081.188097
    7104.6241  283337.000000  323013.187935
    7105.0950  283379.000000  322744.188801
    7105.5231  283327.000000  322572.187251
    7105.8763  283280.000000  322305.188744
    7106.2402  283187.000000  321923.186811
    7106.5721  283067.000000  321655.188540
    7107.0646  283049.000000  321220.186596
    7107.5251  282911.000000  320690.187965
    7107.9427  282903.000000  320311.187022
    7108.3176  282797.000000  319777.187997
    7108.5961  282677.000000  319226.187439
    7108.9711  282618.000000  318402.186944
    7109.5068  282510.000000  317071.188539
    7109.9354  282431.000000  315273.186898
    7110.2784  282346.000000  312986.187197
    7110.6214  282332.000000  310103.187632
    7111.0073  282210.000000  306109.187638
    7111.4683  282123.000000  302147.187374
    7111.9186  282115.000000  299642.187424
    7112.3583  282037.000000  297501.187628
    7112.6693  281994.000000  295744.187463
    7112.9374  281937.000000  293845.187560
    7113.3772  281871.000000  291801.187448
    7113.8278  281825.000000  290459.187512
    7114.2462  281778.000000  288513.187612
    7114.5789  281795.000000  285696.187642
    7114.9008  281840.000000  282531.187503
    7115.3194  281698.000000  276967.187393
    7115.8132  281660.000000  269041.187367
    7116.2426  281583.000000  261185.203110
    7116.6721  281567.000000  252213.202104
    7116.9728  281577.000000  243746.203607
    7117.2627  281547.000000  232641.203217
    7117.7783  281547.000000  216149.203538
    7118.2402  281500.000000  201490.202541
    7118.6270  281460.000000  187785.202843
    7118.9708  281469.000000  176633.203747
    7119.2931  281427.000000  167426.203641
    7119.7660  281425.000000  155078.202546
    7120.2067  281361.000000  145635.202554
    7120.6367  281376.000000  137638.202745
    7121.0344  281330.000000  130669.203767
    7121.3247  281224.000000  124691.202989
    7121.6473  281254.000000  116505.203313
    7122.0990  281217.000000  106623.203116
    7122.5507  281234.000000  97343.198509
    7122.9272  281186.000000  88855.199429
    7123.2500  281156.000000  82365.204762
    7123.5943  281139.000000  76126.201484
    7124.0785  281237.000000  70064.204599
    7124.5412  281092.000000  66014.203135
    7124.9718  281111.000000  63251.200593
    7125.3377  281108.000000  61151.197023
    7125.6392  281113.000000  59209.199320
    7125.9945  281001.000000  56427.200919
    7126.5329  281104.000000  52991.197117
    7126.9744  280979.000000  49908.200775
    7127.3191  280857.000000  47418.201032
    7127.6315  280685.000000  45666.201186
    7127.9977  280560.000000  44324.200113
    7128.5149  280587.000000  44137.198809
    7128.9244  280673.000000  45222.198821
    7129.3555  280602.000000  47220.201326
    7129.7111  280574.000000  49581.198769
    7129.9806  280588.000000  52250.199094
    7130.3903  280512.000000  56763.198658
    7130.8539  280368.000000  60901.196773
    7131.2852  280353.000000  64800.202180
    7131.6087  280324.000000  68116.200458
    7131.9323  280355.000000  70857.205182
    7132.3314  280358.000000  73781.200097
    7132.8384  280325.000000  76676.206441
    7133.2484  280340.000000  78639.203884
    7133.6585  280358.000000  80182.201028
    7134.0146  280338.000000  81455.203434
    7134.3060  280400.000000  82685.202418
    7134.7701  280376.000000  84493.200146
    7135.2559  280369.000000  86031.206155
    7135.6770  280380.000000  87382.202215
    7135.9902  280318.000000  88463.202361
    7136.3141  280310.000000  89385.201182
    7136.7570  280299.000000  90385.204825
    7137.2322  280348.000000  91158.202728
    7137.6428  280287.000000  91499.204496
    7138.0533  280265.000000  91596.199822
    7138.3667  280233.000000  91505.199883
    7138.6801  280231.000000  91135.204085
    7139.1016  280223.000000  90279.202182
    7139.5880  280226.000000  89172.198987
    7139.9664  280223.000000  88050.200738
    7140.3015  280225.000000  86871.199130
    7140.6043  280199.000000  85700.200488
    7141.1017  280261.000000  84138.202258
    7141.5451  280234.000000  83056.206756
    7141.9670  280277.000000  82322.206892
    7142.3456  280266.000000  81973.207183
    7142.6810  280215.000000  81859.205520
    7143.0165  280222.000000  82024.201681
    7143.5034  280148.000000  82681.207148
    7143.9688  280235.000000  83590.204058
    7144.3693  280259.000000  84631.206996
    7144.6616  280184.000000  85535.203685
    7145.0081  280209.000000  86716.203101
    7145.5061  280141.000000  88270.207330
    7145.9285  280171.000000  89686.201791
    7146.1342  280202.000000  90325.207260
    7147.1308  281607.470000  93749.051824
    7148.3769  282953.530000  97323.441422
    7149.4825  284295.160000  99864.362896
    7150.7729  285557.340000  101887.783873
    7151.9661  286899.060000  103419.729000
    7153.2031  288155.280000  104645.149858
    7154.5382  289438.030000  105483.043552
    7155.7110  290658.280000  105780.403655
    7157.0580  291973.000000  105466.222127
    7158.3621  293176.190000  104643.481602
    7159.6775  294404.840000  103783.170839
    7161.1349  295627.970000  102666.277705
    7162.3752  296860.500000  101656.799740
    7163.8554  297949.500000  99713.722864
    7165.2383  299143.880000  96455.036973
    7166.5673  300242.690000  92691.735395
    7168.1256  301310.910000  88956.817489
    7169.6520  302427.500000  86047.251320
    7171.0481  303495.500000  84143.046361
    7172.5757  304598.880000  83137.200696
    7174.1587  305727.590000  82910.695997
    7175.6768  306769.690000  83477.528060
    7177.2065  307837.120000  84982.691974
    7178.9337  308895.940000  87575.182799
    7180.5524  309864.060000  90368.981650
    7182.1171  310682.530000  92962.100347
    7183.6825  310947.310000  95184.525051
    7185.4567  291081.440000  90887.237570
    7187.2319  313204.840000  99755.253134
    7188.9312  315022.590000  102204.545218
    7190.5875  316211.620000  104251.127190
    7192.3105  317246.970000  106073.988541
    7194.1551  318316.560000  107389.118488
    7196.0336  319271.470000  107903.514550
    7197.8472  320241.660000  107710.179652
    7199.5848  321266.120000  107188.087022
    7201.3452  322265.880000  106610.266862
    7203.3158  323200.880000  106223.689554
    7205.3535  324151.120000  106428.343404
    7207.2492  325150.660000  107009.246236
    7209.1459  325885.440000  107485.387550
    7211.1209  326697.440000  107722.770023
    7213.0750  327662.720000  107680.368347
    7215.0412  328640.220000  107255.195140
    7217.0748  329532.970000  106548.247383
    7219.0322  330473.940000  105886.504260
    7221.2010  331416.120000  105659.974029
    7223.3269  332369.560000  106283.673258
    7225.4540  333202.220000  107601.573684
    7227.5271  334086.090000  109398.667983
    7229.6901  334967.160000  111553.968606
    7231.9100  335961.470000  113909.466658
    7234.0757  336863.970000  116076.168313
    7236.2428  337815.690000  117648.051229
    7238.4892  338886.590000  118286.128677
    7240.7815  329086.720000  113701.387365
    7243.0196  335643.000000  114704.837113
    7245.2257  339365.530000  114222.464075
    7247.5225  338137.220000  112540.278584
    7249.8877  341598.090000  113091.256288
    7252.2322  342507.160000  113497.415143
    7254.4441  343352.410000  114168.731399
    7256.8923  344216.840000  114896.233958
    7259.2080  344988.470000  115309.901110
    7261.6595  345766.250000  115436.727813
    7263.9447  346708.220000  115465.716801
    7266.3884  347433.340000  115487.860353
    7268.9011  348203.620000  115646.164523
    7271.3707  348895.090000  116001.633777
    7273.9207  349891.750000  116832.247153
    7276.5063  349788.530000  117644.018439
    7279.0825  350767.470000  119155.936410
    7281.4918  351364.590000  120790.000206
    7284.1280  351945.880000  122725.212785
    7286.6761  352112.280000  124600.572620
    7289.1808  350398.840000  125688.063210
    7291.9020  350983.590000  127508.696515
    7294.6478  355958.440000  130305.485528
    7297.3619  355658.470000  130613.400196
    7299.8969  353997.620000  129967.444211
    7302.5698  357607.940000  130744.631997
    7305.3240  358382.410000  130288.953181
    7308.1031  358969.970000  129742.385704
    7310.9298  359729.720000  129279.958233
    7313.6451  360319.560000  129012.668424
    7316.3398  360879.560000  128969.491173
    7319.1731  361472.690000  129149.441152
    7322.1113  362090.970000  129492.527736
    7325.0177  363008.340000  130081.712307
    7327.7096  363582.880000  130655.041165
    7330.5978  363831.530000  131253.468899
    7333.6712  364127.310000  132010.024018
    7336.4156  365954.190000  133358.709507
    7339.2995  366482.220000  134322.484193
    7342.4034  366602.380000  135263.393084
    7345.3151  367317.620000  136353.403893
    7348.2866  367739.030000  137267.530497
    7351.3295  369123.530000  138437.765444
    7354.3750  369536.160000  139080.111325
    7357.4117  370156.880000  139750.563716
    7360.4970  370775.720000  140490.109532
    7363.5965  371269.690000  141254.782202
    7366.7103  371863.750000  142067.546452
    7369.8730  372499.940000  142873.423330
    7372.9923  370256.250000  142496.391060
    7376.1260  373437.620000  144012.467530
    7379.4708  374052.160000  144571.641401
    7382.5638  374261.750000  144846.921205
    7385.6710  363252.470000  140764.297426
    7389.1177  376617.310000  145974.764234
    7392.2540  376942.250000  146240.328307
    7395.5907  377380.250000  146633.000496
    7398.9190  377900.410000  147151.751186
    7402.0639  378453.620000  147812.591696
    7405.5498  378946.970000  148673.547282
    7408.7473  379532.380000  149616.579658
    7412.2865  380038.910000  150726.704384
    7415.6187  380720.530000  151880.920934
    7419.0125  381177.250000  153026.218589
    7422.4095  381666.060000  154011.608247
    7425.9271  382145.970000  154865.093906
    7429.3308  381762.970000  155279.656797
    7432.8317  383357.030000  156330.312751
    7436.3831  348599.220000  141979.047736
    7439.7731  382051.500000  156640.875227
    7443.4493  383834.840000  157859.779252
    7446.9286  384549.310000  158490.764772
    7450.5530  385208.840000  159107.826868
    7454.1930  385779.470000  159626.984247
    7457.6709  386364.160000  160133.204086
    7461.4010  386958.970000  160647.516559
    7464.9808  387539.840000  161182.905056
    7468.7422  388015.810000  161783.374544
    7472.3293  388635.840000  162482.920431
    7476.0152  389020.970000  163192.547983
    7479.6095  389703.190000  164033.251135
    7483.6128  390137.470000  164930.031788
    7487.2267  390578.840000  165940.873954
    7491.0472  390942.310000  166940.795958
    7494.8121  391504.840000  168039.795287
    7498.5090  391929.440000  168996.876683
    7502.5692  392494.120000  169960.013762
    7506.2501  392868.880000  170738.237279
    7510.1629  393326.720000  171468.516945
    7514.0679  393786.620000  172191.873557
    7517.8207  394067.620000  172845.295531
    7521.9388  394610.690000  173639.797452
    7525.8082  394922.810000  174341.374240
    7529.6456  395401.030000  175118.998750
    7533.6442  395801.310000  175861.702151
    7537.6835  396149.660000  176598.470824
    7541.5698  396333.090000  177183.311362
    7545.7513  395706.590000  177484.216225
    7549.7434  364256.160000  164131.189889
    7553.5818  398842.810000  179841.218000
    7557.8501  399379.500000  180643.313379
    7561.9286  399600.280000  181267.483084
    7565.8652  399899.120000  181870.700048
    7570.2090  400320.030000  182698.998594
    7574.3257  400728.000000  183545.343941
    7578.4593  401116.060000  184410.763879
    7582.4629  401530.190000  185277.235495
    7586.9000  401801.340000  186146.779084
    7591.0724  402150.590000  187023.373395
    7595.2004  402536.910000  187865.032828
    7599.5177  403053.280000  188762.749269
    7603.8154  403449.690000  189676.531574
    7608.1551  403752.190000  190523.376566
    7612.2900  404234.750000  191391.265573
    7616.5903  404634.380000  192276.221910
    7621.0319  404951.060000  193094.232356
    7625.4540  405278.810000  193901.294822
    7629.7573  403380.620000  193644.420396
    7634.1030  406016.470000  195564.610884
    7638.5657  405550.410000  195934.845194
    7643.1085  403034.380000  195487.142203
    7647.6819  407117.440000  197997.501948
    7652.1861  407432.530000  198802.889420
    7656.7082  407800.690000  199640.360459
    7661.1733  408156.940000  200431.859738
    7665.9195  408571.190000  201354.438517
    7670.5338  408854.530000  202259.045726
    7675.2543  409369.940000  203242.735483
    7679.8676  409507.380000  204036.456275
    7684.6000  409949.880000  204991.236270
    7689.2502  410260.440000  205901.063170
    7693.9694  410693.030000  206879.936854
    7698.8083  407883.720000  206199.874672
    7703.6156  411286.440000  208683.845570
    7708.4798  411590.220000  209637.890783
    7713.2742  411934.030000  210568.967317
    7718.1637  412427.940000  211560.110732
    7722.9579  412580.880000  212374.284147
    7727.8347  412873.840000  213300.513768
    7732.5775  413054.880000  214138.798412
    7737.5818  413277.000000  215016.123926
    7742.5161  413632.120000  215946.497394
    7747.5722  413908.310000  216813.920373
    7752.5197  414321.560000  217732.389437
    7757.5764  414642.880000  218690.924567
    7762.5372  414763.220000  219531.485290
    7767.6332  415048.590000  220490.091576
    7772.6331  415498.060000  221523.749556
    7777.7041  415753.560000  222487.466765
    7782.7174  415908.090000  223359.215735
    7787.8021  416133.690000  224298.000890
    7792.8288  416358.310000  225224.842143
    7797.9272  416653.030000  226190.732643
    7803.0195  416879.750000  227105.671166
    7808.1707  417193.530000  228108.639580
    7813.3029  417389.380000  229032.659457
    7818.4682  417525.250000  229989.719823
    7823.6536  417789.160000  230939.830683
    7828.8461  418077.160000  231901.969890
    7834.0982  418265.160000  232857.173298
    7839.3445  418453.220000  233797.405881
    7844.6637  418616.310000  234694.686360
    7849.9510  418646.470000  235585.000997
    7855.2851  418978.690000  236620.359808
    7860.6927  418869.910000  237402.768625
    7866.0156  419648.190000  238671.203550
    7871.4385  418723.530000  238962.687190
    7876.7896  420798.910000  241023.220896
    7882.2412  420610.310000  241835.778743
    7887.5942  420576.780000  242628.390322
    7893.1012  420654.280000  243541.029834
    7898.4962  420821.840000  244522.715668
    7904.0189  421015.410000  245551.454606
    7909.3892  421114.060000  246428.217297
    7914.9679  421345.720000  247454.016874
    7920.3670  421607.440000  248435.860139
    7925.9482  421833.190000  249466.750437
    7931.3762  421911.000000  250430.671395
    7936.9870  422121.810000  251400.622346
    7942.4576  422301.690000  252384.627582
    7948.1656  422437.620000  253353.653081
    7953.7469  418064.590000  251442.733074
    7959.5394  422809.560000  255397.842213
    7965.1778  422592.620000  256149.982408
    7970.9875  423491.690000  257618.173670
    7976.6155  414639.810000  253194.387981
    7982.4016  423563.970000  259463.657195
    7988.0872  423691.160000  260481.956416
    7993.8222  423840.410000  261482.283809
    7999.4836  423864.660000  262404.657404
    8005.2492  424049.970000  263464.062126
    8011.1743  424291.340000  264565.466723
    8017.0398  424478.720000  265599.970074
    8023.0106  424529.160000  266632.470719
    8028.7975  424410.590000  267544.998078
    8034.6758  424581.090000  268623.591678
    8040.4110  424434.620000  269451.183702
    8046.4039  424702.220000  270585.844956
    8052.3644  424749.810000  271604.529659
    8058.3757  424880.470000  272675.251541
    8064.2849  425124.160000  273806.003016
    8070.2031  423373.880000  273602.785256
    8076.0885  425237.620000  275816.590753
    8082.0665  425336.410000  276831.439348
    8084.0938  425436.220000  277185.595737
