# XDI/1.0
# Column.1: energy eV
# Column.2: i0
# Column.3: itrans
# Column.4: irefer
# Beamline.name: SSRL 2-3
# Beamline.notes: vert slits = 0.6mm
# Detector.I0: N2 15cm
# Detector.I1: Ar 30cm
# Detector.I2: Ar 15cm
# Element.edge: K
# Element.symbol: As
# Mono.d_spacing: 3.13550
# Mono.name: Si(111)
# Mono.notes: unfocused, detuned 75%, clockwise at E=12000eV
# Sample.formula: As2S3
# Sample.name: As2S3 arsenious sulfide (orpiment)
# Sample.prep: powder on tape (5 layers)
# Sample.reference: GaAs powder
# Sample.temperature: room temp
# Scan.start_time: 1997-04-20 10:51:20
# ///
#    Note: mono d_spacing is nominal!
#     exafs to K16, GaAs in IR
#     413  E XMU XMUR I0
#-------------
#   energy   i0   itrans  irefer
   11634.8900  641230.310000  111625.519187  45428.006148
   11644.9080  637817.310000  111460.458351  45627.983173
   11654.9440  635343.310000  111425.532572  45883.014700
   11664.9980  631647.310000  111199.533268  46065.015755
   11675.0700  628660.310000  111094.485853  46296.995322
   11684.8620  626480.310000  111132.518020  46579.006963
   11694.9690  621510.310000  110661.445477  46648.977089
   11705.0930  619050.310000  110607.460946  46907.981661
   11714.9370  616046.310000  110515.539417  47133.016338
   11725.0950  613076.310000  110390.536970  47343.016139
   11734.9740  611138.310000  110415.475447  47635.991533
   11744.8670  608121.310000  110265.532096  47834.014416
   11755.0790  604962.310000  110075.463079  48023.984278
   11765.0090  601790.310000  109878.483792  48224.990528
   11774.9540  598414.310000  109652.507207  48385.004442
   11784.9180  596562.310000  109672.504744  48656.003138
   11794.8960  593258.310000  109437.532039  48839.016058
   11804.8950  590129.310000  109210.551312  49004.022294
   11814.9090  587128.310000  108965.506931  49152.002185
   11824.9400  584279.310000  108678.517015  49276.009458
   11834.9890  581602.310000  108295.532068  49318.013416
   11845.0570  578379.310000  107522.475390  49135.986999
   11845.3610  577943.310000  107422.513636  49080.008070
   11845.9730  577750.310000  107361.515128  49056.008979
   11846.5830  577668.310000  107319.551432  49044.024103
   11846.8890  577593.310000  107261.524341  49004.008707
   11847.4990  577647.310000  107237.552677  48997.025497
   11848.1100  577301.310000  107124.459484  48946.982926
   11848.4150  577104.310000  107071.520822  48918.009938
   11849.0270  577660.310000  107128.494478  48954.999419
   11849.6370  576374.310000  106819.478557  48810.990047
   11849.9420  575900.310000  106707.513491  48757.004677
   11850.5560  575802.310000  106612.459949  48717.981406
   11850.8600  575856.310000  106547.529052  48674.012711
   11851.4710  575430.310000  106414.529829  48603.013061
   11852.0830  575021.310000  106246.524957  48525.013195
   11852.3900  575255.310000  106234.504763  48517.000371
   11853.0000  575309.310000  106118.545883  48444.021070
   11853.6100  575039.310000  105938.464682  48345.986236
   11853.9170  575107.310000  105891.464472  48318.985090
   11854.5290  575635.310000  105815.532410  48272.016190
   11855.1400  575820.310000  105673.446987  48180.975801
   11855.4460  575139.310000  105467.546525  48075.019145
   11856.0580  575519.310000  105319.520416  47979.007958
   11856.3630  575221.310000  105149.469157  47884.988064
   11856.9760  575114.310000  104896.465521  47729.985205
   11857.5880  574457.310000  104433.529370  47466.015244
   11857.8940  574726.310000  104337.511237  47405.006471
   11858.5040  574934.310000  103962.451512  47167.976144
   11859.1180  574724.310000  103480.528539  46880.014987
   11859.4240  573951.310000  103115.484299  46675.993138
   11860.0350  573993.310000  102494.459268  46283.982050
   11860.6470  574318.310000  101807.501464  45849.999585
   11860.9550  573704.310000  101356.512080  45601.003562
   11861.5660  573611.310000  100312.469238  44959.986561
   11861.8720  573595.310000  99755.492092  44604.997879
   11862.4840  573185.310000  98233.477392  43684.990119
   11863.0980  573109.310000  96356.462560  42538.981462
   11863.4030  572551.310000  95327.502326  41922.000296
   11864.0170  572069.310000  92269.455034  40083.980085
   11864.6280  572302.310000  88200.476523  37678.990794
   11864.9350  571901.310000  85739.483878  36258.993299
   11865.5470  571602.310000  79218.470684  32633.986870
   11865.8540  571617.310000  76155.532473  30996.014417
   11866.4670  572423.310000  66876.509045  26208.004258
   11867.0780  572461.310000  56292.491050  21071.995941
   11867.3880  572668.310000  51221.516274  18699.011911
   11867.9990  573325.310000  41012.515936  14095.002287
   11868.6110  573889.310000  32461.492413  10342.002731
   11868.9190  573654.310000  29966.496298  9254.000713
   11869.5320  573901.310000  25980.504965  7407.999633
   11870.1450  573824.310000  25875.492089  7010.999475
   11870.4510  573382.310000  26925.497548  7212.998185
   11871.0640  572849.310000  30928.487904  8217.998581
   11871.3710  572291.310000  32888.503038  8748.000369
   11871.9850  571881.310000  38446.492516  10295.999995
   11872.5990  571340.310000  43871.505049  11865.001563
   11872.9050  570604.310000  46028.510234  12518.004803
   11873.5180  569900.310000  49662.516372  13630.002795
   11874.1330  569802.310000  51850.494726  14380.001780
   11874.4390  570036.310000  52364.509412  14591.002339
   11875.0530  569698.310000  52703.503848  14853.001113
   11875.3580  569756.310000  52577.524791  14918.003067
   11875.9750  570212.310000  51973.489182  14970.996537
   11876.5880  570527.310000  51288.524769  15038.010639
   11876.8940  570015.310000  51008.496665  15057.997119
   11877.5090  569738.310000  50588.493545  15202.990473
   11878.1230  570018.310000  50513.492718  15414.991087
   11878.4300  570026.310000  50565.499600  15532.001643
   11879.0440  569517.310000  50761.499202  15764.005016
   11879.3510  568981.310000  50861.516998  15844.011197
   11879.9660  569090.310000  51206.482665  16060.986597
   11880.5800  569143.310000  51575.474821  16271.990660
   11880.8870  568852.310000  51714.481041  16354.986569
   11881.5000  569105.310000  52029.480784  16527.001470
   11882.1160  568641.310000  52265.518352  16657.005001
   11882.4240  568310.310000  52337.524003  16694.003615
   11883.0370  567942.310000  52543.523577  16779.012453
   11883.6520  567790.310000  52743.480802  16845.998958
   11883.9590  567869.310000  52843.478284  16879.996878
   11884.5740  567024.310000  52972.514123  16905.012534
   11884.8810  566650.310000  53015.502790  16912.996943
   11885.4960  566350.310000  53162.475993  16965.990968
   11886.1100  566093.310000  53302.483417  17008.988222
   11886.4190  566319.310000  53387.523219  17052.009757
   11887.0340  565764.310000  53491.490119  17090.992632
   11887.6480  565800.310000  53667.478674  17168.000358
   11887.9550  566522.310000  53804.519104  17226.010189
   11888.5720  566652.310000  54001.504418  17294.004933
   11888.8790  566347.310000  54056.484651  17310.989169
   11889.4930  566367.310000  54275.494423  17385.001041
   11890.1090  566449.310000  54490.512133  17448.009916
   11890.4170  565922.310000  54533.479036  17455.989146
   11891.0320  565658.310000  54729.518278  17510.000999
   11891.6480  565765.310000  54966.524010  17573.012518
   11891.9560  566309.310000  55127.485051  17622.991998
   11892.5700  565951.310000  55321.523698  17677.012201
   11892.8790  565405.310000  55367.503199  17696.003742
   11893.4950  565094.310000  55568.507981  17768.009790
   11894.1090  565228.310000  55804.512652  17874.010636
   11894.4190  565122.310000  55911.505708  17919.996023
   11895.0350  564497.310000  56060.508610  18022.006929
   11895.6490  564677.060000  56289.273472  18152.766848
   11896.2660  564504.310000  56496.518605  18291.034443
   11896.8810  564664.120000  56721.258873  18424.827514
   11897.4980  564481.440000  56908.544931  18527.155198
   11898.4220  564447.250000  57194.339500  18669.980885
   11899.0380  564986.560000  57430.639106  18747.341267
   11899.6550  564732.440000  57580.447760  18784.237015
   11900.5800  564794.810000  57804.723688  18824.618296
   11901.1950  565078.690000  57955.588156  18843.537102
   11902.1210  565631.120000  58181.889788  18894.977278
   11903.0450  566043.000000  58308.742956  18935.927567
   11903.6620  565828.440000  58346.065241  18945.395542
   11904.5870  566381.440000  58444.920072  18992.397613
   11905.5130  567218.870000  58526.242498  19041.889128
   11906.4380  567494.870000  58509.124104  19064.933584
   11907.3630  567338.370000  58412.499427  19057.484246
   11908.2910  568481.370000  58434.387419  19073.568762
   11909.2150  569174.940000  58348.744310  19069.149858
   11910.1430  569988.940000  58247.662165  19044.264062
   11911.0680  570106.500000  58039.057291  18968.888420
   11912.3030  571167.620000  57794.968502  18873.026280
   11913.2290  572494.190000  57652.383311  18808.701094
   11914.1560  573607.310000  57458.275061  18716.884544
   11915.3920  574028.940000  57100.724975  18592.584402
   11916.3180  575083.120000  56899.672584  18527.823716
   11917.5560  576363.750000  56624.115977  18468.562676
   11918.7930  577481.940000  56348.080115  18462.823490
   11919.7190  578446.620000  56194.521461  18472.613229
   11920.9570  579474.810000  55969.516445  18491.925795
   11922.1930  580732.560000  55834.968072  18512.725141
   11923.4320  582141.810000  55754.999188  18536.098069
   11924.6690  582822.560000  55666.458446  18536.945288
   11925.9080  584151.810000  55689.459814  18557.312156
   11927.1460  585376.620000  55729.990714  18595.236299
   11928.3840  587195.940000  55893.023162  18652.656267
   11929.6230  588919.750000  56086.544007  18707.582566
   11930.8610  590289.120000  56255.535817  18750.031844
   11932.4110  591439.940000  56482.120673  18782.022077
   11933.6510  593041.310000  56777.155862  18839.525053
   11934.8910  595142.190000  57166.688038  18911.540644
   11936.4410  597023.620000  57633.769797  18991.066362
   11937.9920  598769.560000  58109.363708  19101.136125
   11939.2320  599630.000000  58466.433213  19196.707853
   11940.7840  600774.940000  58940.024237  19360.799714
   11942.3360  601296.370000  59380.087394  19545.399540
   11943.5770  602755.370000  59815.715425  19713.554132
   11945.1300  605276.870000  60433.826509  19967.201247
   11946.6840  609184.870000  61204.442996  20249.372084
   11948.2370  611749.440000  61810.533005  20497.046179
   11949.7910  614027.500000  62364.220121  20709.275991
   11951.3460  615789.060000  62806.305207  20895.994081
   11952.8990  618444.120000  63295.981273  21084.261046
   11954.7670  620445.750000  63696.153194  21277.031793
   11956.3220  622470.810000  64005.802011  21433.320325
   11957.8780  625127.440000  64349.008947  21609.143449
   11959.7450  627575.620000  64645.673023  21745.463775
   11961.3010  629481.250000  64835.874403  21812.300799
   11963.1710  631696.440000  64997.510054  21854.655437
   11964.7290  633852.120000  65160.709875  21898.533651
   11966.5980  636767.370000  65349.474103  21972.955301
   11968.4700  639096.060000  65459.705604  22042.882744
   11970.0270  642347.310000  65669.404935  22193.337666
   11971.9000  644554.060000  65739.614081  22346.276281
   11973.7710  646931.370000  65814.370733  22512.758989
   11975.6440  648790.120000  65827.604693  22640.770254
   11977.5190  651739.440000  65959.363651  22764.284766
   11979.3920  655559.250000  66191.674231  22880.355137
   11981.2670  657871.620000  66274.407089  22942.883606
   11983.1410  660447.500000  66376.736127  22990.995415
   11985.0170  663402.870000  66555.517747  23055.594528
   11987.2060  663999.750000  66481.769882  22993.688678
   11989.0830  667269.120000  66728.586399  23023.339052
   11991.2730  671908.060000  67122.916664  23079.493955
   11993.1510  675826.500000  67497.758255  23132.172242
   11995.3440  678307.440000  67765.054146  23134.375690
   11997.2250  682027.940000  68191.888767  23205.089387
   11999.4170  684603.870000  68575.229191  23296.319321
   12001.2990  687551.370000  69023.052759  23439.076061
   12003.4940  690697.440000  69547.423313  23651.342288
   12005.6880  693542.940000  70111.312361  23902.143847
   12007.8860  696270.000000  70689.674541  24153.456983
   12010.0830  699923.560000  71396.591426  24457.309519
   12012.2820  701323.620000  71853.939123  24676.649578
   12014.4810  705521.250000  72634.854149  25028.517914
   12016.6820  710290.370000  73464.247423  25392.906370
   12018.8810  714647.000000  74218.148891  25723.802086
   12021.0830  717400.120000  74792.583752  25992.232214
   12023.6020  721945.810000  75546.478844  26347.175581
   12025.8040  724983.000000  76045.983723  26611.679711
   12028.0080  729410.690000  76638.911757  26891.652814
   12030.5270  732686.870000  77078.348767  27131.147469
   12032.7330  736274.620000  77513.349577  27332.191249
   12035.2570  740175.870000  77989.782157  27572.745973
   12037.7800  742901.620000  78285.752560  27743.806520
   12039.9890  746965.870000  78730.253312  27963.399508
   12042.5140  750306.690000  79082.217801  28151.483216
   12045.0400  754825.000000  79528.697733  28362.105316
   12047.5660  758064.810000  79826.687894  28544.231975
   12050.0960  761341.120000  80118.237294  28706.928642
   12052.6250  765426.000000  80495.279390  28870.102428
   12055.1540  767615.370000  80658.789943  28914.806148
   12057.6880  770106.250000  80880.802142  28951.021615
   12060.2210  776874.690000  81543.373040  29169.774790
   12062.7540  782525.620000  82103.419260  29396.030937
   12065.2880  786545.060000  82505.009496  29585.814679
   12068.1420  790252.000000  82872.052473  29793.101754
   12070.6780  793693.440000  83251.595261  29961.891504
   12073.2180  798920.440000  83825.676805  30154.234659
   12076.0730  803419.940000  84368.283337  30316.118693
   12078.6150  807776.940000  84885.386804  30463.491178
   12081.4730  809806.500000  85222.998277  30550.386296
   12084.3350  815144.560000  85922.134364  30776.809613
   12086.8780  819662.120000  86537.790815  30998.760089
   12089.7420  824477.190000  87248.858366  31266.194826
   12092.6060  828608.810000  87899.504007  31574.163076
   12095.4740  833130.870000  88602.647324  31943.660338
   12098.3400  836348.560000  89185.321065  32269.659809
   12101.2090  840682.690000  89905.515217  32658.210294
   12104.0800  845251.310000  90655.172113  33038.250339
   12106.9520  849774.500000  91392.280838  33408.822779
   12109.8250  852893.190000  91988.017387  33720.916847
   12112.6970  857261.440000  92735.182958  34111.512465
   12115.8940  863057.120000  93604.913486  34584.658114
   12118.7710  868868.370000  94459.072064  35008.288258
   12121.6500  872335.190000  95030.865825  35358.486783
   12124.8500  878047.440000  95859.025141  35801.150296
   12127.7310  880926.250000  96327.795414  36077.370425
   12130.9360  886614.560000  97090.967126  36451.074781
   12133.8190  891443.370000  97733.746921  36754.332620
   12137.0270  893972.690000  98131.972079  36942.085390
   12140.2350  900759.560000  98957.786771  37254.388984
   12143.4450  905168.940000  99519.997146  37455.171841
   12146.3370  910757.810000  100178.842254  37692.521693
   12149.5510  914196.250000  100609.055039  37864.335906
   12152.7650  918492.120000  101148.863262  38079.703567
   12155.9810  924211.560000  101824.221341  38356.607456
   12159.2000  929449.560000  102446.994701  38614.989880
   12162.4210  934918.000000  103099.323036  38907.919846
   12165.6420  937831.000000  103493.184697  39116.370499
   12169.1890  942944.500000  104148.464682  39436.312392
   12172.4150  949623.500000  104979.342242  39836.803268
   12175.6430  954126.060000  105605.642339  40144.783276
   12178.8720  959440.060000  106338.546915  40502.319475
   12182.4260  963448.690000  106919.929583  40791.365645
   12185.6580  969699.750000  107821.759365  41177.907528
   12189.2180  974194.310000  108530.124615  41511.980846
   12192.4520  978496.440000  109206.998339  41863.567946
   12196.0160  984301.060000  110091.386313  42327.682539
   12199.5790  987687.250000  110708.331522  42662.328703
   12202.8220  994502.870000  111714.664725  43145.455105
   12206.3900  998303.060000  112421.578385  43524.125674
   12209.9610  1003385.700000  113254.019998  43945.321168
   12213.5340  1009171.000000  114183.006420  44443.058286
   12217.1070  1012884.700000  114861.456664  44872.291006
   12220.6860  1018904.900000  115818.429524  45396.050237
   12224.2630  1024058.700000  116644.882643  45884.323747
   12227.8450  1029494.000000  117527.776146  46379.080134
   12231.4270  1034128.800000  118292.291956  46788.414184
   12235.0130  1039381.100000  119152.206118  47230.214185
   12238.9270  1043251.900000  119863.781124  47644.597301
   12242.5160  1050115.300000  120841.678495  48127.423349
   12246.1080  1054540.100000  121548.216380  48499.821945
   12250.0290  1060832.500000  122479.204479  48944.717955
   12253.6250  1065214.400000  123185.749213  49243.154963
   12257.5500  1069213.800000  123848.728698  49522.082986
   12261.1520  1075136.800000  124698.296060  49905.563438
   12265.0810  1081204.100000  125600.295467  50314.525184
   12269.0160  1083342.100000  126037.953384  50568.071491
   12272.6230  1090599.600000  127046.977003  51065.086029
   12276.5610  1097393.500000  128001.515221  51528.615880
   12280.5020  1100561.000000  128531.540912  51817.660569
   12284.4450  1106877.100000  129461.159015  52281.255624
   12288.3910  1113498.600000  130416.246232  52784.349163
   12292.3380  1119448.600000  131313.884438  53276.989520
   12296.2890  1124617.300000  132119.931095  53751.102530
   12300.2430  1128839.300000  132835.592330  54185.780177
   12304.1980  1134662.900000  133737.628111  54714.928133
   12308.1580  1140058.000000  134593.270179  55191.635847
   12312.1190  1145549.600000  135491.485516  55691.882533
   12316.0840  1149700.800000  136248.035296  56145.577374
   12320.3800  1154698.500000  137130.297422  56674.878349
   12324.3490  1159089.600000  137934.943264  57145.648658
   12328.6520  1165599.400000  139017.071220  57753.932373
   12332.6270  1171271.500000  139994.787509  58308.762944
   12336.6040  1176758.300000  140935.978431  58868.099150
   12340.9150  1182381.500000  141938.647436  59441.943929
   12345.2290  1187522.300000  142878.742312  60007.275589
   12349.2150  1192431.500000  143776.466680  60509.173326
   12353.5360  1198821.400000  144877.735962  61105.610477
   12357.8590  1203035.600000  145735.496118  61599.552643
   12362.1870  1208734.500000  146741.600977  62166.957179
   12366.1830  1214255.900000  147700.376730  62698.939911
   12370.5150  1220209.600000  148747.602441  63288.423305
   12374.8510  1224963.000000  149630.349872  63815.430498
   12379.1890  1229547.000000  150492.626231  64326.963852
   12383.5320  1235107.400000  151472.366480  64852.003772
   12387.8760  1239237.300000  152246.723939  65297.600428
   12392.5600  1244416.800000  153222.523298  65848.692049
   12396.9110  1248923.600000  154004.733556  66310.266828
   12401.2650  1255155.100000  155069.504042  66890.377960
   12405.6210  1260608.100000  155997.893284  67409.064875
   12410.3170  1265324.600000  156882.633590  67944.185661
   12414.6820  1270872.600000  157804.989986  68468.893328
   12419.0490  1276926.100000  158866.779200  69080.078134
   12423.7550  1281495.300000  159722.171572  69630.819499
   12428.1290  1287193.800000  160698.956460  70237.038019
   12432.8420  1291976.900000  161631.298299  70814.791964
   12437.5600  1297013.500000  162577.139362  71439.068166
   12441.9420  1303410.600000  163666.635131  72101.918041
   12446.6660  1307821.300000  164551.386586  72714.179144
   12451.3950  1312260.400000  165457.841035  73320.051504
   12456.1250  1320089.000000  166812.668545  74131.380972
   12460.5220  1322439.300000  167444.049857  74591.254226
   12465.2610  1327792.900000  168469.103183  75272.718804
   12470.0030  1332525.100000  169439.510452  75898.626847
   12474.7480  1338540.900000  170568.405081  76620.052087
   12479.4980  1343230.100000  171560.764308  77268.974846
   12484.2500  1349559.900000  172743.669802  78000.436145
   12489.0070  1355481.100000  173878.142889  78682.449514
   12494.1070  1358910.900000  174718.105439  79249.963254
   12498.8710  1363246.300000  175671.560778  79851.983901
   12503.6400  1368464.100000  176725.608461  80519.572783
   12508.4110  1374397.400000  177900.011532  81234.615817
   12513.5270  1377953.300000  178784.033616  81833.227174
   12518.3070  1385393.600000  180129.415216  82627.286084
   12523.4320  1391111.500000  181257.441034  83364.924126
   12528.2200  1394942.900000  182127.093904  83964.136523
   12533.3520  1399463.900000  183139.931509  84656.730376
   12538.1460  1402402.300000  183878.455913  85167.914595
   12543.2880  1409677.300000  185247.559858  86020.650707
   12548.0900  1416354.800000  186480.151629  86794.912469
   12553.2390  1420098.800000  187339.171558  87405.649979
   12558.3930  1423678.300000  188212.784178  88024.946172
   12563.5510  1428297.300000  189233.805092  88727.707571
   12568.7130  1432241.800000  190131.357399  89386.993768
   12573.5360  1438262.900000  191311.376660  90165.795239
   12578.7070  1443710.400000  192462.964945  90960.136065
   12583.8810  1447787.500000  193383.991980  91635.972551
   12589.0610  1454043.100000  194630.579953  92491.356788
   12594.2440  1457495.100000  195499.839079  93172.326934
   12599.4320  1463834.900000  196771.452358  94030.746098
   12604.9720  1465087.000000  197401.535453  94641.664324
   12610.1680  1470284.600000  198531.199972  95450.144731
   12615.3690  1474235.800000  199496.368432  96155.140392
   12620.5740  1480360.500000  200749.912744  97051.592464
   12625.7840  1486979.800000  202113.083884  97956.613570
   12631.3480  1491630.500000  203186.666501  98763.114096
   12636.5660  1495823.800000  204231.952677  99524.223903
   12642.1370  1498488.500000  205078.577872  100202.777957
   12647.3640  1503461.800000  206233.824345  101025.907588
   12652.9450  1507901.500000  207321.396266  101830.455380
   12658.1840  1513013.900000  208482.665937  102650.632052
   12663.7740  1517737.600000  209628.325485  103475.253137
   12669.0200  1521200.000000  210554.552445  104190.429329
   12674.6200  1525871.900000  211682.235988  105016.099121
   12680.2280  1531550.300000  212964.560524  105917.370798
   12685.8370  1533523.100000  213728.185618  106547.036723
   12691.1020  1538467.500000  214896.618880  107421.384179
   12696.7220  1543562.500000  216084.240833  108287.078578
   12702.3490  1545881.900000  216897.487816  108987.373443
   12707.9790  1550517.900000  218059.352114  109849.218344
   12713.6130  1555546.400000  219216.570054  110743.514294
   12719.2550  1561253.300000  220502.310905  111704.352928
   12724.9010  1564267.800000  221451.617410  112476.727555
   12730.5510  1569463.900000  222690.379746  113420.582127
   12736.2080  1572451.400000  223610.809223  114224.062725
   12741.8680  1576812.400000  224682.573089  115084.957886
   12747.8890  1580278.000000  225725.816159  115979.373415
   12753.5620  1584769.100000  226864.743768  116875.375153
   12759.2370  1588867.600000  227958.100019  117782.869474
   12764.9190  1591861.800000  228888.858937  118569.816231
   12770.9620  1595475.400000  229929.336069  119473.408935
   12776.6540  1600232.600000  231182.229695  120468.459606
   12782.3510  1604611.300000  232314.446204  121360.945460
   12788.4100  1610383.400000  233764.352248  122501.045700
   12794.1190  1613333.100000  234677.813346  123328.677519
   12800.1890  1616981.400000  235808.575878  124280.742228
   12806.2660  1619466.000000  236727.039250  125107.396979
   12811.9890  1624796.300000  238064.044750  126149.616249
   12818.0770  1627395.000000  239003.418666  127011.274216
   12824.1700  1627539.400000  239588.431543  127654.511105
   12829.9100  1632035.100000  240818.862413  128645.227678
   12836.0160  1635509.500000  241943.603494  129600.359208
   12842.1270  1641778.300000  243432.150900  130724.174154
   12848.2440  1646555.600000  244693.123879  131795.446096
   12854.3660  1649493.500000  245733.483954  132704.194545
   12860.4950  1650052.900000  246376.444135  133437.489801
   12866.2690  1653947.800000  247516.021991  134415.387953
   12872.4080  1655870.100000  248393.924156  135257.692172
   12878.5550  1661492.000000  249834.393624  136433.548629
   12885.0690  1661959.500000  250495.412476  137204.951856

