# XDI/1.0
# Column.1: energy eV
# Column.2: i0
# Column.3: itrans
# Column.4: irefer
# Beamline.name: SSRL 4-1
# Detector.I0: N2 15cm
# Detector.I1: N2 30cm
# Detector.I2: Ar 15cm
# Element.edge: K
# Element.symbol: As
# Mono.d_spacing: 3.13550
# Mono.name: Si(111)
# Mono.notes: unfocused, detuned 40%,counter clockwise at E=12000eV
# Sample.formula: As2O5
# Sample.name: As2O5 arsenic(V) oxide
# Sample.prep: powder, mixed 1:60 with B(OH)3 by wt
# Sample.reference: GaAs powder
# Sample.temperature: room temperature
# Scan.start_time: 1997-01-19 14:49:01
# ///
#    Note: mono d_spacing is nominal!
#     exafs to K15, GaAs in IR
#     320  E XMU XMUR I0
#-------------
#   energy   i0   itrans  irefer
   11649.9940  171833.340000  293054.252381  340658.923909
   11660.0050  171408.340000  292999.254044  341507.951605
   11669.9970  172054.340000  294801.237230  344503.915849
   11680.0060  171072.340000  293775.246701  344255.945377
   11689.9960  170463.340000  293413.230653  344736.914320
   11700.0050  170468.340000  294118.247933  346472.929602
   11709.9940  169794.340000  293597.252870  346782.936154
   11720.0020  169519.340000  293803.248525  347936.927526
   11730.0030  168910.340000  293416.247735  348429.927667
   11739.9950  168941.340000  294148.238861  350213.915202
   11749.9960  167865.340000  292921.252581  349684.951440
   11760.0000  167643.340000  293146.254474  350886.934101
   11769.9970  166748.340000  292254.246240  350709.950404
   11779.9990  167011.340000  293323.241520  352924.945132
   11789.9960  166709.340000  293467.240687  353925.916915
   11799.9980  165806.340000  292424.256445  353622.931721
   11810.0030  164940.340000  291502.252420  353314.937272
   11820.0020  164641.340000  291450.246722  354062.946048
   11829.9940  163961.340000  290653.247794  353758.921465
   11840.0030  163763.340000  290476.255661  353948.929878
   11850.0040  163448.340000  289474.229884  352325.927331
   11850.7620  163260.340000  289074.229493  351682.895525
   11851.5200  163176.340000  288822.252756  351237.929811
   11852.2780  163123.340000  288610.232621  350818.923112
   11853.0360  163097.340000  288436.252737  350447.952514
   11853.7820  164056.340000  289965.254987  352059.961202
   11854.5410  161999.340000  286147.256491  347164.961776
   11855.2990  162654.340000  287163.240308  348043.939810
   11856.0580  162241.340000  286180.256492  346430.935958
   11856.8150  161193.340000  284069.240801  343460.912755
   11857.5750  162497.340000  286131.253082  345412.941238
   11858.3340  161420.340000  283843.255970  341939.961404
   11859.0930  162014.340000  284486.229471  341746.915457
   11859.8530  162066.340000  284134.255638  340267.937108
   11860.6110  161800.340000  283135.252070  337441.953531
   11861.3570  161910.340000  282651.255564  334741.946232
   11862.1180  162287.340000  282615.231853  332066.904363
   11862.8770  163669.340000  284141.249810  329645.941192
   11863.6370  162800.340000  281401.237414  319070.934101
   11864.3960  162111.340000  278823.254068  306001.943461
   11865.1550  162043.340000  276897.231053  289536.917455
   11865.9030  161963.340000  274280.255330  269019.942711
   11866.6630  162466.340000  272060.248023  249744.951186
   11867.4230  162948.340000  268808.254816  230638.953987
   11868.1830  162715.340000  262028.242496  208933.954268
   11868.9430  161454.340000  250792.242743  188401.943561
   11869.7030  162067.340000  240674.242407  175396.938935
   11870.4510  161640.340000  223305.244218  160480.949954
   11871.2130  161817.340000  202079.254250  144787.951444
   11871.9730  162222.340000  181534.254040  130437.953735
   11872.7210  162330.340000  158975.246040  115561.944801
   11873.4820  162080.340000  138175.240495  103023.945133
   11874.2430  162459.340000  126801.244304  97432.950580
   11875.0040  162266.340000  122789.248543  97286.950036
   11875.7540  161215.340000  127297.247966  103408.947047
   11876.5150  161619.340000  138834.241890  114365.941121
   11877.2750  160813.340000  151967.246413  126335.948093
   11878.0250  161617.340000  166457.245442  139470.943928
   11878.7860  160612.340000  174704.244962  147412.947546
   11879.5480  161010.340000  179431.242880  152174.940978
   11880.3090  161468.340000  181673.239540  154743.945483
   11881.0600  161284.340000  181444.240974  155076.942076
   11881.8200  162210.340000  181932.254199  155832.963705
   11882.5820  161573.340000  180628.250984  154990.954512
   11883.3330  162322.340000  181284.244558  155554.944708
   11884.0950  161847.340000  180770.242283  155112.947526
   11884.8450  161203.340000  180003.239772  154420.939893
   11885.6070  161709.340000  180344.250327  154689.955442
   11886.3570  161501.340000  179696.252585  154191.947688
   11887.1200  161670.340000  179419.245994  154024.953293
   11887.8820  161224.340000  178428.241365  153285.946921
   11888.6340  161225.340000  178247.246853  153191.950538
   11889.3960  161001.340000  178380.246467  153264.944613
   11890.1460  161342.340000  179775.247002  154379.945568
   11890.9100  162053.340000  182276.240314  156406.946220
   11891.6730  160967.340000  182879.247856  156919.947576
   11892.4230  161321.340000  185515.247687  159305.951484
   11893.1880  161520.340000  188160.247298  161815.950121
   11893.9380  161441.340000  190015.254707  163780.965163
   11894.7010  160915.340000  191265.246191  165323.950952
   11895.4520  160824.340000  192774.249669  167174.957455
   11896.2160  160497.340000  193590.241718  168322.952304
   11896.9680  160605.340000  194642.248649  169547.945524
   11897.7310  160738.340000  195623.251942  170597.951181
   11898.4840  160450.340000  195980.249558  170900.956440
   11899.2480  160774.340000  197008.242290  171682.950864
   11900.0000  160700.340000  197769.238419  172112.939871
   11901.2820  161098.340000  199889.234568  173625.952318
   11902.5780  160961.330000  201756.202425  175108.949679
   11903.8960  160680.300000  203579.150774  176773.946259
   11905.2290  160998.250000  206376.071733  179425.951322
   11906.5740  161353.190000  209141.946018  182039.917325
   11907.9560  160359.120000  210387.801202  183299.898316
   11909.3520  161241.050000  213450.669606  186008.905251
   11910.7590  161106.940000  214673.478288  186907.878679
   11912.1910  161087.840000  215137.252091  187022.850816
   11913.6380  160577.720000  214167.038037  185829.829936
   11915.1070  160944.580000  213670.793437  185193.825519
   11916.5920  161513.440000  212957.509313  184766.794388
   11918.1010  160552.280000  209801.201246  182654.743186
   11919.6330  161391.110000  209065.870836  182862.713852
   11921.1800  161169.920000  207011.513432  181886.690253
   11922.7390  161635.730000  205965.138345  181572.645285
   11924.3230  161980.520000  205219.734580  181239.612381
   11925.9330  161788.300000  204180.312962  180482.584890
   11927.5550  162122.060000  204165.861142  180529.537730
   11929.1890  162670.810000  204685.384022  180880.481178
   11930.8510  162865.560000  204826.888327  180669.442168
   11932.5360  163111.280000  204721.366594  180054.389162
   11934.2330  163927.000000  204931.834002  179564.326167
   11935.9580  164297.700000  204235.252135  178245.288357
   11937.6950  164286.390000  202831.662314  176436.226006
   11939.4430  164437.060000  201767.043724  175231.154119
   11941.2190  164840.730000  201176.379857  174757.104411
   11943.0200  166148.390000  201835.741298  175623.044361
   11944.8330  165776.020000  200932.031705  175162.970427
   11946.6590  166676.640000  202018.332445  176396.913802
   11948.5110  166977.270000  202738.585977  177292.834085
   11950.3870  167834.860000  204136.812746  178797.757332
   11952.2780  167605.450000  204053.028852  178975.693375
   11954.1930  168240.030000  204869.217003  179956.599821
   11956.1100  167803.590000  204187.377275  179760.532170
   11958.0630  168594.140000  204897.506976  180831.433037
   11960.0310  169410.670000  205719.618666  181773.347438
   11962.0120  169193.200000  205434.707264  181493.248967
   11964.0190  170676.720000  207524.777231  183148.177971
   11966.0500  171330.220000  208804.833652  184174.099911
   11968.0950  171670.700000  209873.843900  185271.998389
   11970.1520  171911.170000  210830.815573  186725.885765
   11972.2360  173725.640000  213652.801202  190238.809146
   11974.3340  173370.080000  213782.726053  191471.696825
   11976.4560  174546.520000  215791.658099  194155.599404
   11978.5930  174629.940000  216648.561055  195442.478081
   11980.7540  175214.360000  218326.432285  197184.381678
   11982.9290  176223.750000  220717.255258  199401.263582
   11985.1300  177626.140000  223595.094970  201926.163714
   11987.3450  177931.520000  224913.898845  202777.061667
   11989.5850  179084.870000  227059.665726  204069.909253
   11991.8370  180208.220000  228868.421568  204920.799404
   11994.1040  179366.550000  228038.135832  203320.688201
   11996.3960  181187.870000  230628.836241  204711.556889
   11998.7150  181422.190000  231229.507570  204497.439894
   12001.0470  181678.480000  231937.173567  204748.302357
   12003.3930  183501.770000  234718.802656  207238.170344
   12005.7650  184528.030000  236457.402649  209100.035469
   12008.1490  184760.300000  237108.990106  210111.913310
   12010.5610  186488.550000  239543.527391  212670.760204
   12012.9850  187498.780000  240931.061023  214386.623900
   12015.4370  187256.000000  240612.574341  214691.489401
   12017.9000  188551.200000  242212.051427  216662.336371
   12020.3790  189336.410000  243152.514931  218000.178135
   12022.8830  190284.580000  244277.931619  219587.028925
   12025.4010  191332.750000  245456.356835  221315.892524
   12027.9450  191552.910000  245535.751246  221961.748481
   12030.5020  193386.050000  247583.091802  224310.575678
   12033.0870  193220.190000  247021.436281  224273.403611
   12035.6860  195603.310000  249732.758409  227142.258302
   12038.3100  197096.410000  251242.045680  228917.107007
   12040.9480  198928.500000  253262.288128  231134.914082
   12043.6010  198146.590000  252052.528017  230392.747464
   12046.2780  199624.660000  253852.757320  232367.584404
   12048.9710  200903.720000  255438.937351  234222.406321
   12051.6880  202305.750000  257267.105684  236155.230913
   12054.4210  202711.780000  257840.239715  236599.038381
   12057.1690  203539.800000  258982.388976  237256.888812
   12059.9400  205220.810000  261347.469164  238991.687600
   12062.7290  206071.800000  262667.546749  240090.513482
   12065.5430  207076.780000  264178.561113  241738.311195
   12068.3690  208053.750000  265641.580857  243425.112685
   12071.2110  210322.700000  268830.593673  246449.937098
   12074.0800  211699.640000  270874.571412  248082.756886
   12076.9770  212209.580000  271857.510682  248509.556428
   12079.8720  213080.500000  273320.426016  249355.332803
   12082.7960  214369.390000  275329.331015  250740.128578
   12085.7460  216173.280000  277970.226295  252864.944072
   12088.7120  216944.170000  279400.053787  254024.726151
   12091.6910  218095.030000  281372.885759  255964.541530
   12094.6960  219333.890000  283352.691280  258395.314925
   12097.7040  220615.720000  285312.469669  260937.108447
   12100.7500  222391.550000  287829.234078  264051.890050
   12103.8120  223638.370000  289751.925515  266598.645646
   12106.8890  225082.170000  292040.658944  269339.440720
   12109.9780  226144.970000  293902.345442  271661.219595
   12113.0960  227020.730000  295495.980652  273917.981750
   12116.2390  229818.500000  299607.614526  278607.771827
   12119.3870  229673.250000  299919.212483  279777.556585
   12122.5600  232544.000000  304101.812366  284480.313528
   12125.7460  233483.720000  305720.367682  286798.088291
   12128.9620  234980.440000  308039.917435  289606.853791
   12132.1920  235192.140000  308716.412654  290605.630709
   12135.4490  237358.830000  311931.916219  293819.383509
   12138.7210  238938.500000  314444.376317  296083.126196
   12142.0080  240405.160000  316726.829779  297947.890362
   12145.3090  242888.810000  320326.204812  300992.611100
   12148.6380  244156.450000  322266.617741  302575.368452
   12151.9800  246184.080000  325222.983057  305203.137281
   12155.3510  247870.690000  327772.312750  307455.874347
   12158.7370  248477.300000  328847.623583  308448.623582
   12162.1370  249545.870000  330534.931299  310202.337442
   12165.5530  251334.450000  333159.189501  312896.095541
   12168.9950  253400.020000  336091.433620  315964.838496
   12172.4530  255146.560000  338594.668939  318677.575059
   12175.9390  255172.090000  338803.834393  319307.302655
   12179.4410  257352.620000  341848.038598  322524.036982
   12182.9560  258051.140000  342879.160154  323663.754557
   12186.4990  260714.620000  346474.283905  327226.472998
   12190.0450  262759.120000  349252.382179  330192.193329
   12193.6320  265519.590000  353043.480395  334339.917751
   12197.2210  266259.060000  354222.499238  336044.625326
   12200.8380  267585.500000  356318.516973  338509.332263
   12204.4710  269342.940000  359006.551467  341612.081109
   12208.1160  270891.340000  361519.499643  344569.782307
   12211.7930  272390.780000  364015.455325  347652.454374
   12215.4830  274792.160000  367690.381753  351988.195703
   12219.1890  275669.560000  369243.272569  354447.898035
   12222.9230  276795.910000  371184.204555  357256.609477
   12226.6720  278845.280000  374370.023526  361129.274750
   12230.4380  282281.620000  379415.846958  366711.001173
   12234.2180  282921.970000  380735.662545  368520.693187
   12238.0250  284699.280000  383533.421370  371829.358493
   12241.8500  286216.590000  386005.196535  374724.040062
   12245.6890  288230.870000  389149.928996  378091.742404
   12249.5580  288718.160000  390232.645173  379120.428291
   12253.4430  291901.440000  394965.338747  383507.121752
   12257.3410  293043.690000  396981.988456  385309.801732
   12261.2570  295010.940000  400200.647624  388472.491518
   12265.2010  296791.190000  403180.248041  391587.154520
   12269.1580  299028.410000  406810.829740  395388.800399
   12273.1360  299404.590000  407864.414809  396642.508455
   12277.1260  301872.780000  411753.953348  400740.169263
   12281.1460  304338.970000  415686.434623  404861.840004
   12285.1820  306527.160000  419295.937275  408828.500869
   12289.2320  307963.310000  421840.403819  411917.152309
   12293.3130  309132.440000  423985.854856  414779.823428
   12297.3970  310994.560000  427112.233266  418504.452920
   12301.5080  313933.690000  431641.673803  423659.143575
   12305.6500  315849.810000  434777.026012  427434.775922
   12309.7950  315949.910000  435419.392958  428715.456954
   12313.9700  317870.970000  438555.707908  432539.082185
   12318.1580  320728.030000  442932.994846  437608.714597
   12322.3640  322748.090000  446248.250133  441624.375603
   12326.5860  325818.120000  451009.503600  447106.003397
   12330.8240  325993.160000  451812.738914  448698.675695
   12335.0920  330156.190000  458107.945642  455825.288808
   12339.3770  331277.190000  460152.086171  458657.898019
   12343.6890  333716.190000  463963.275383  463272.556213
   12348.0070  333334.160000  463513.388532  463993.169546
   12352.3530  337491.120000  469951.453458  470436.797666
   12356.7020  339247.090000  473103.566381  473590.441600
   12361.0800  340189.030000  475015.641851  475506.047789
   12365.4890  342071.940000  477952.648476  479873.648433
   12369.9020  343812.870000  480846.660818  483473.285869
   12374.3440  345703.780000  483953.622674  487218.903633
   12378.8030  348101.660000  487852.576829  491594.482735
   12383.2780  350192.530000  491289.510750  495435.104743
   12387.7700  352746.410000  495389.446332  499986.727216
   12392.2790  354237.250000  498048.313008  503099.345414
   12396.8160  356013.090000  501185.153081  506736.933370
   12401.3710  358335.910000  505061.014397  511172.543931
   12405.9430  359772.720000  507723.799903  514395.111072
   12410.5320  363050.530000  512938.587577  520276.710532
   12415.1390  365082.310000  516484.374277  524494.312968
   12419.7620  368267.090000  521587.091782  530479.934165
   12424.4150  368718.870000  522887.786536  532585.471068
   12429.0850  370667.620000  526303.508181  536914.131745
   12433.7720  372282.340000  529262.191348  540794.689457
   12438.4760  374529.090000  533136.813433  545677.251688
   12443.1970  376299.780000  536318.452776  549921.825659
   12447.9370  377708.500000  539097.008888  553839.444902
   12452.7050  381898.190000  545770.552966  561655.989845
   12457.4910  383162.840000  548375.114637  565194.550212
   12462.2810  384842.530000  551515.607085  569403.104826
   12467.1030  387212.160000  555683.151199  574670.716536
   12471.9400  388655.810000  558539.613709  578554.235826
   12476.8110  391808.440000  563769.086679  584948.837932
   12481.6830  394222.030000  568046.498254  590131.373165
   12486.5740  395749.620000  570941.891660  593895.957655
   12491.4960  397156.220000  573705.274012  597486.526969
   12496.4350  400693.780000  579576.633457  604313.071947
   12501.3790  402093.340000  582348.957113  607940.643101
   12506.3530  405581.910000  588083.268337  614690.205926
   12511.3450  407120.440000  591096.486046  618594.675604
   12516.3540  408020.970000  593168.774702  621533.275498
   12521.3960  409414.470000  595907.001423  625303.815865
   12526.4390  412400.970000  601040.190028  631523.380100
   12531.5040  414600.470000  605020.374077  636495.872710
   12536.5990  416582.940000  608671.478165  641152.416198
   12541.7110  417879.370000  611350.596536  644760.907713
   12546.8270  421335.840000  617122.740592  651750.490491
   12551.9750  424316.280000  622258.823134  658021.009766
   12557.1420  424952.690000  623960.861896  660711.546524
   12562.3270  428784.090000  630323.957531  668384.084785
   12567.5300  430313.500000  633297.953995  672572.581015
   12572.7510  433393.870000  638594.932565  679205.121206
   12577.9900  434174.250000  640456.850892  682255.602407
   12583.2600  437752.590000  646529.797584  689838.110616
   12588.5360  438949.940000  649093.760000  693680.635143
   12593.8300  441585.280000  653762.647370  699868.213628
   12599.1560  443932.590000  658077.513844  705726.703187
   12604.4860  443613.910000  658452.320321  707326.197477
   12609.8500  445469.220000  662091.095930  712426.660074
   12615.2170  449596.500000  669103.939714  721219.193207
   12620.6160  452844.750000  674793.657476  728500.652646
   12626.0210  453304.030000  676411.452389  731309.204192
   12631.4580  454531.250000  679115.127807  735365.693848
   12636.9140  459419.500000  687331.793787  745375.170378
   12642.3890  460288.720000  689544.506960  748836.631894
   12647.8670  461929.910000  692848.159842  753471.097462
   12653.3800  463418.090000  696095.768150  758014.647084
   12658.9100  465973.280000  700861.360392  764253.112533
   12664.4600  467877.470000  704697.931755  769486.558583
   12670.0270  470530.620000  709663.516027  775947.083592
   12675.6160  473196.750000  714726.008208  782530.574073
   12681.2220  474515.870000  717724.480294  786927.980838
   12686.8480  478717.000000  725096.977962  796192.474392
   12692.4790  479335.090000  727050.409663  799536.907486
   12698.1440  479870.190000  728914.856182  802808.415720
   12703.8250  483948.280000  736077.227213  811966.847806
   12709.5280  486533.340000  741047.651019  818680.337694
   12715.2500  487211.410000  743078.978369  822210.821208

