# XDI/1.0
# Column.1: energy eV
# Column.2: i0
# Column.3: itrans
# Column.4: irefer
# Beamline.name: SSRL 4-1
# Detector.I0: N2 15cm
# Detector.I1: N2 30cm
# Detector.I2: Ar 15cm
# Element.edge: K
# Element.symbol: As
# Mono.d_spacing: 3.13550
# Mono.name: Si(111)
# Mono.notes: unfocused, detuned 40%,counter clockwise at E=12000eV
# Sample.formula: As2O5
# Sample.name: As2O5 arsenic (V) oxide
# Sample.prep: powder, mixed 1:60 with B(OH)3 by wt
# Sample.reference: GaAs powder
# Sample.temperature: room temperature
# Scan.start_time: 1997-01-19 14:49:01
# ///
#    Note: mono d_spacing is nominal!
#     exafs to K15, GaAs in IR
#     320  E XMU XMUR I0
#-------------
#   energy   i0   itrans  irefer
   11649.9940  173291.340000  295721.231273  343604.925271
   11660.0050  172501.340000  295038.248704  343743.934783
   11669.9970  172779.340000  296177.248923  346018.931555
   11680.0060  172595.340000  296561.251664  347387.954335
   11689.9960  171637.340000  295579.241739  347185.931624
   11700.0050  171422.340000  295897.241235  348481.915361
   11709.9940  171129.340000  296093.251886  349586.925583
   11720.0020  169493.340000  293886.234219  347960.905871
   11730.0030  169756.340000  295019.251869  350233.934249
   11739.9950  169341.340000  294974.243175  351110.939773
   11749.9960  168481.340000  294144.252515  351034.953743
   11760.0000  168158.340000  294252.233186  352097.925915
   11769.9970  167704.340000  294054.242330  352793.940327
   11779.9990  167702.340000  294724.234907  354475.921848
   11789.9960  166572.340000  293347.229078  353745.910879
   11799.9980  166121.340000  293169.249382  354413.951747
   11810.0030  166393.340000  294204.235151  356521.912480
   11820.0020  165366.340000  292898.243014  355725.923035
   11829.9940  164737.340000  292161.235641  355522.922485
   11840.0030  164213.340000  291401.236222  354996.928067
   11850.0040  164015.340000  290639.236235  353676.926717
   11850.7620  164232.340000  290951.251511  353925.922428
   11851.5200  163550.340000  289621.249411  352159.934878
   11852.2780  163781.340000  289902.235018  352376.936687
   11853.0360  163723.340000  289728.231866  351940.931085
   11853.7820  163414.340000  288979.236258  350836.933528
   11854.5410  163577.340000  289086.255644  350694.932026
   11855.2990  163313.340000  288458.257310  349597.952399
   11856.0580  163788.340000  289057.255531  349916.930370
   11856.8150  163003.340000  287421.244746  347504.943706
   11857.5750  162872.340000  286936.232244  346389.929287
   11858.3340  161963.340000  285011.238643  343338.936844
   11859.0930  163116.340000  286611.255906  344355.959564
   11859.8530  162606.340000  285280.237818  341729.909839
   11860.6110  162488.340000  284543.244949  339297.921305
   11861.3570  163468.340000  285630.247206  338507.934564
   11862.1180  163653.340000  285278.247255  335531.925598
   11862.8770  162687.340000  282707.246987  328439.942994
   11863.6370  162989.340000  282050.236840  320755.932775
   11864.3960  162302.340000  279517.245561  308246.932964
   11865.1550  163754.340000  280295.240493  295275.927898
   11865.9030  162852.340000  276293.249726  273342.938184
   11866.6630  163204.340000  273972.253131  253862.955291
   11867.4230  162914.340000  269526.237331  233248.950721
   11868.1830  164312.340000  265757.231558  213754.942153
   11868.9430  163470.340000  255555.234213  193241.937717
   11869.7030  163014.340000  244026.242905  178332.943527
   11870.4510  162548.340000  227034.238035  163260.948940
   11871.2130  162875.340000  206301.238393  147756.939485
   11871.9730  163009.340000  185373.238820  133061.948740
   11872.7210  163239.340000  162531.246007  117915.948098
   11873.4820  163184.340000  141199.245568  104913.949128
   11874.2430  163330.340000  128637.243314  98465.947302
   11875.0040  162109.340000  122839.244569  96998.949237
   11875.7540  162690.340000  127566.250241  103354.956088
   11876.5150  162305.340000  137897.240816  113383.941964
   11877.2750  162334.340000  151623.246977  125862.948623
   11878.0250  162088.340000  165690.245663  138669.950839
   11878.7860  162064.340000  175477.245088  147909.955064
   11879.5480  161695.340000  179936.236662  152469.937790
   11880.3090  162230.340000  182570.240278  155412.951463
   11881.0600  162523.340000  183068.247820  156367.956003
   11881.8200  162049.340000  181999.248284  155820.944562
   11882.5820  161944.340000  181286.254027  155487.959219
   11883.3330  162016.340000  181135.250824  155426.957464
   11884.0950  161738.340000  180845.241145  155162.948325
   11884.8450  162025.340000  181143.247834  155354.956818
   11885.6070  163063.340000  182084.254048  156147.959219
   11886.3570  162368.340000  180952.245237  155230.942240
   11887.1200  162745.340000  180881.251664  155210.948203
   11887.8820  161365.340000  178828.239052  153573.946441
   11888.6340  161330.340000  178552.247980  153398.953083
   11889.3960  161635.340000  179192.242556  153919.942031
   11890.1460  161832.340000  180321.246151  154828.950289
   11890.9100  162106.340000  182263.244360  156392.948321
   11891.6730  162258.340000  184233.238683  158081.947940
   11892.4230  162905.340000  187250.238467  160675.948734
   11893.1880  161649.340000  188240.240354  161803.950661
   11893.9380  161584.340000  190116.251575  163774.951004
   11894.7010  160987.340000  191306.246412  165264.947476
   11895.4520  160603.340000  192555.244757  166865.950473
   11896.2160  161851.340000  195261.241040  169670.947704
   11896.9680  161066.340000  195263.246421  170012.953262
   11897.7310  161285.340000  196381.244408  171198.943827
   11898.4840  161682.340000  197586.239755  172257.947132
   11899.2480  161901.340000  198499.253093  172945.953360
   11900.0000  161331.340000  198627.251972  172840.959530
   11901.2820  160964.340000  199818.219305  173522.946959
   11902.5780  160967.330000  201857.201700  175132.954443
   11903.8960  161759.300000  205027.153787  177964.951259
   11905.2290  161228.250000  206754.058326  179692.932370
   11906.5740  161536.190000  209458.955614  182246.926080
   11907.9560  162045.120000  212657.802967  185247.897572
   11909.3520  161410.050000  213785.659411  186255.897568
   11910.7590  161800.940000  215695.461904  187755.862323
   11912.1910  161519.840000  215869.267936  187628.863888
   11913.6380  161550.720000  215682.032009  187096.822284
   11915.1070  162264.580000  215617.782093  186834.820351
   11916.5920  162611.440000  214634.493530  186156.766866
   11918.1010  162015.280000  211955.204279  184465.757818
   11919.6330  162525.110000  210767.875736  184280.713689
   11921.1800  162506.920000  208970.519184  183530.687066
   11922.7390  162459.730000  207232.127874  182627.645452
   11924.3230  162774.520000  206446.733560  182251.614628
   11925.9330  162519.300000  205306.311003  181432.568988
   11927.5550  163153.060000  205662.850222  181808.526050
   11929.1890  163744.810000  206246.381198  182210.475805
   11930.8510  163528.560000  205803.895951  181523.451365
   11932.5360  164352.280000  206482.378134  181557.384694
   11934.2330  164140.000000  205388.831618  179906.329217
   11935.9580  164661.700000  204853.249383  178750.283238
   11937.6950  165239.390000  204205.649310  177594.217503
   11939.4430  165095.060000  202780.036844  176065.155673
   11941.2190  165421.730000  202085.394362  175503.108050
   11943.0200  166585.390000  202544.725902  176200.020670
   11944.8330  166376.020000  201831.039127  175906.975573
   11946.6590  166800.640000  202361.322917  176654.902643
   11948.5110  166611.270000  202472.580918  177022.824193
   11950.3870  167829.860000  204305.807579  178904.765535
   11952.2780  168448.450000  205285.022729  179983.677868
   11954.1930  168675.030000  205568.223026  180537.617700
   11956.1100  169206.590000  206081.370743  181380.528975
   11958.0630  169617.140000  206316.516935  182041.444752
   11960.0310  169767.670000  206342.612612  182264.340794
   11962.0120  170612.200000  207350.717042  183138.270641
   11964.0190  170695.720000  207729.791587  183297.195790
   11966.0500  170376.220000  207820.837566  183262.096713
   11968.0950  172010.700000  210457.847609  185739.004034
   11970.1520  172282.170000  211460.824818  187217.895647
   11972.2360  174118.640000  214306.794161  190724.791342
   11974.3340  174016.080000  214764.742637  192276.705447
   11976.4560  175264.520000  216893.657442  195068.596875
   11978.5930  175841.940000  218321.560328  196904.477105
   11980.7540  175816.360000  219252.413948  197961.376051
   11982.9290  177381.750000  222334.274356  200810.281606
   11985.1300  178140.140000  224443.082260  202624.141651
   11987.3450  178707.520000  226096.885199  203795.044091
   11989.5850  179845.870000  228183.654361  205067.912814
   11991.8370  180143.220000  228951.433707  204981.801327
   11994.1040  180686.550000  229937.138815  204973.676190
   11996.3960  181509.870000  231224.831195  205220.545467
   11998.7150  183268.190000  233801.508039  206732.440484
   12001.0470  183114.480000  233989.169716  206507.293424
   12003.3930  184424.770000  236068.809841  208396.190435
   12005.7650  185307.030000  237628.414753  210092.029629
   12008.1490  185121.300000  237740.985753  210628.914457
   12010.5610  186114.550000  239225.529333  212340.760344
   12012.9850  187614.780000  241242.057674  214625.622177
   12015.4370  188719.000000  242672.582152  216476.486949
   12017.9000  190299.200000  244664.031733  218791.313781
   12020.3790  191073.410000  245585.510882  220118.183481
   12022.8830  191869.580000  246530.931997  221550.016116
   12025.4010  191798.750000  246276.366210  221990.890051
   12027.9450  193007.910000  247642.747301  223786.746205
   12030.5020  193986.050000  248607.102649  225153.584983
   12033.0870  194516.190000  248903.432179  225915.401302
   12035.6860  196405.310000  250998.743267  228208.243825
   12038.3100  197385.410000  251863.031367  229412.093996
   12040.9480  198327.500000  252715.286358  230582.912446
   12043.6010  199432.590000  253914.522425  232042.741313
   12046.2780  200756.660000  255524.763806  233826.591313
   12048.9710  202293.720000  257424.944691  235988.411660
   12051.6880  203403.750000  258901.121885  237599.245035
   12054.4210  204358.780000  260162.249933  238688.046500
   12057.1690  206137.800000  262549.379624  240458.879855
   12059.9400  207368.810000  264310.460447  241669.680890
   12062.7290  207879.800000  265188.535581  242349.504578
   12065.5430  208860.780000  266679.564740  243967.313585
   12068.3690  210123.750000  268551.591572  246020.122870
   12071.2110  211029.700000  269938.588159  247429.932734
   12074.0800  211793.640000  271224.557817  248340.744872
   12076.9770  212824.580000  272877.495029  249391.541760
   12079.8720  215349.500000  276474.443936  252167.348813
   12082.7960  216518.390000  278300.338849  253402.135718
   12085.7460  216993.280000  279239.206462  253970.925852
   12088.7120  217728.170000  280631.061461  255093.733029
   12091.6910  219057.030000  282839.869933  257259.526700
   12094.6960  221894.890000  286906.678621  261588.304570
   12097.7040  221722.720000  286992.473937  262416.097456
   12100.7500  223324.550000  289314.228877  265329.883335
   12103.8120  224518.370000  291144.943302  267815.660561
   12106.8890  226061.170000  293564.661385  270664.443115
   12109.9780  227042.970000  295315.357763  272917.230633
   12113.0960  228292.730000  297367.994029  275598.994013
   12116.2390  230553.500000  300823.628031  279666.784638
   12119.3870  231198.250000  302158.213986  281791.559681
   12122.5600  232145.000000  303849.823115  284173.323618
   12125.7460  234223.720000  306967.361312  287886.080191
   12128.9620  236209.440000  309954.920479  291322.857789
   12132.1920  236761.140000  310999.400590  292719.620665
   12135.4490  239651.830000  315229.915075  296860.384290
   12138.7210  240377.500000  316597.390221  298058.138845
   12142.0080  241774.160000  318818.816251  299842.877951
   12145.3090  243930.810000  321980.221423  302489.628069
   12148.6380  245791.450000  324673.613690  304815.364848
   12151.9800  246257.080000  325564.966276  305477.122663
   12155.3510  247890.690000  328022.329191  307664.890523
   12158.7370  248991.300000  329796.618238  309282.619809
   12162.1370  250486.870000  332101.918082  311598.326708
   12165.5530  252145.450000  334523.189674  314124.094593
   12168.9950  254073.020000  337301.438234  317027.844012
   12172.4530  256137.560000  340204.648508  320136.556527
   12175.9390  256589.090000  340973.831456  321292.300979
   12179.4410  258154.620000  343192.017303  323714.018716
   12182.9560  259592.140000  345267.164438  325819.757389
   12186.4990  261291.620000  347578.278530  328170.467575
   12190.0450  263151.120000  350073.372392  330911.185599
   12193.6320  265947.590000  353948.477690  335120.915769
   12197.2210  267632.060000  356388.499571  338002.623321
   12200.8380  268666.500000  358072.519202  340145.332051
   12204.4710  270035.940000  360250.549876  342695.079676
   12208.1160  272350.340000  363775.512041  346635.793477
   12211.7930  273971.780000  366442.459274  349880.458284
   12215.4830  275293.160000  368643.394508  352831.207275
   12219.1890  277184.560000  371611.281564  356632.905171
   12222.9230  279524.910000  375108.197889  360989.604695
   12226.6720  280547.280000  376904.020276  363525.271375
   12230.4380  282866.620000  380477.856237  367659.011389
   12234.2180  283662.970000  382054.667915  369717.698758
   12238.0250  286668.280000  386532.452074  374633.389009
   12241.8500  287165.590000  387585.208692  376181.051716
   12245.6890  289209.870000  390810.941836  379608.754283
   12249.5580  290863.160000  393456.657641  382172.438342
   12253.4430  292556.440000  396171.344310  384634.124060
   12257.3410  294581.690000  399343.021285  387573.834011
   12261.2570  295176.940000  400745.624497  388929.468840
   12265.2010  298674.190000  406118.266395  394310.170247
   12269.1580  300770.410000  409519.866528  397928.836378
   12273.1360  302489.590000  412355.385481  400981.480784
   12277.1260  303735.780000  414640.955689  403434.174762
   12281.1460  304711.970000  416550.444601  405596.851536
   12285.1820  306366.160000  419394.954411  408844.516252
   12289.2320  308592.310000  423003.401603  412969.153219
   12293.3130  311647.440000  427806.867199  418387.835669
   12297.3970  313362.560000  430730.264966  421942.483128
   12301.5080  315651.690000  434382.663534  426239.130863
   12305.6500  317309.810000  437135.018950  429679.767813
   12309.7950  318487.910000  439222.366791  432402.429811
   12313.9700  321987.970000  444598.703134  438398.079358
   12318.1580  321914.030000  444954.986145  439500.705483
   12322.3640  324337.090000  448818.231513  444066.357984
   12326.5860  326929.120000  452941.504947  448912.004736
   12330.8240  327890.160000  454805.736144  451601.673170
   12335.0920  330130.190000  458472.949351  456080.292388
   12339.3770  332044.190000  461608.099893  460011.911848
   12343.6890  335212.190000  466474.256445  465638.537388
   12348.0070  337477.160000  469715.378660  470195.159712
   12352.3530  340005.120000  473797.481568  474280.825594
   12356.7020  342603.090000  478196.580925  478683.455799
   12361.0800  342642.030000  478741.630269  479232.036105
   12365.4890  347002.940000  485273.647044  487065.646887
   12369.9020  347086.870000  485878.646634  488386.271367
   12374.3440  348793.780000  488741.617036  491921.898157
   12378.8030  350074.660000  491071.601969  494729.508146
   12383.2780  353264.530000  496040.537919  500087.131911
   12387.7700  354795.410000  498718.452707  503198.734001
   12392.2790  356829.250000  502127.301428  507109.332371
   12396.8160  357805.090000  504135.154997  509605.938169
   12401.3710  360244.910000  508190.006252  514202.535460
   12405.9430  363590.720000  513500.826765  520142.139505
   12410.5320  365479.530000  516819.597263  524081.723034
   12415.1390  365541.310000  517578.392138  525497.328229
   12419.7620  368564.090000  522464.070985  531246.912156
   12424.4150  370369.870000  525678.786932  535295.475434
   12429.0850  374449.620000  532134.495177  542721.120560
   12433.7720  376337.340000  535483.202767  547026.704969
   12438.4760  375977.090000  535695.825732  548130.260686
   12443.1970  379608.780000  541535.431308  555143.803771
   12447.9370  380906.500000  544152.989592  558870.424862
   12452.7050  382658.190000  547357.545188  563168.980674
   12457.4910  385556.840000  552215.145682  569114.587018
   12462.2810  387909.530000  556404.608281  574316.106160
   12467.1030  389747.160000  559785.134209  578786.697264
   12471.9400  391646.810000  563297.630118  583384.255016
   12476.8110  392973.440000  565948.071138  587061.824370
   12481.6830  396256.030000  571385.516876  593529.390071
   12486.5740  397847.620000  574469.879963  597449.945845
   12491.4960  401237.220000  580133.252864  604039.500195
   12496.4350  402232.780000  582308.616307  607057.051393
   12501.3790  405239.340000  587395.909804  613092.594257
   12506.3530  406937.910000  590536.247706  617145.187688
   12511.3450  407651.440000  592298.479131  619734.664246
   12516.3540  410522.970000  597284.759332  625718.258489
   12521.3960  410760.470000  598359.022905  627741.838369
   12526.4390  415424.970000  605956.208570  636562.394299
   12531.5040  416573.470000  608419.398672  639935.899694
   12536.5990  418425.940000  611881.483237  644376.420298
   12541.7110  420929.370000  616305.604916  649875.920018
   12546.8270  423826.840000  621287.772016  655987.520798
   12551.9750  426784.280000  626347.786620  662226.972880
   12557.1420  430171.690000  632132.869162  669254.554708
   12562.3270  430428.090000  633217.947410  671401.072255
   12567.5300  431289.500000  635201.936360  674506.557997
   12572.7510  436007.870000  642980.947811  683744.133388
   12577.9900  438294.250000  647087.864664  689176.611579
   12583.2600  439148.590000  649111.775800  692475.085370
   12588.5360  440265.940000  651566.754062  696149.630391
   12593.8300  442618.280000  655848.638394  701930.199496
   12599.1560  445282.590000  660614.468203  708284.652414
   12604.4860  446133.910000  662732.310393  711781.187742
   12609.8500  450588.220000  670233.115020  721050.679033
   12615.2170  451914.500000  673107.939686  725384.190659
   12620.6160  453960.750000  677024.689047  730720.687698
   12626.0210  455097.030000  679584.409588  734648.158706
   12631.4580  457557.250000  684207.143739  740735.708881
   12636.9140  458475.500000  686484.780427  744295.151488
   12642.3890  462305.720000  693272.475072  752749.598388
   12647.8670  463428.910000  695717.228410  756423.168868
   12653.3800  465557.090000  699861.761183  761981.640464
   12658.9100  468839.280000  705748.345735  769441.096929
   12664.4600  470144.470000  708691.938324  773685.562038
   12670.0270  473160.620000  714189.481951  780762.040704
   12675.6160  474289.750000  716901.979361  784798.543102
   12681.2220  477232.870000  722363.495682  791921.997393
   12686.8480  480646.000000  728585.973010  799895.466626
   12692.4790  483266.090000  733569.403640  806577.899859
   12698.1440  482598.190000  733587.882293  807848.444844
   12703.8250  484909.280000  738135.211988  814043.831736
   12709.5280  489525.340000  746161.621647  824183.309159
   12715.2500  490275.410000  748377.997387  827844.797706
