# XDI/1.0
# Column.1: energy eV
# Column.2: i0
# Column.3: itrans
# Column.4: irefer
# Beamline.name: SSRL 2-3
# Beamline.notes: vert slits = 0.6mm
# Detector.I0: N2 15cm
# Detector.I1: Ar 30cm
# Detector.I2: Ar 15cm
# Element.edge: K
# Element.symbol: As
# Mono.d_spacing: 3.13550
# Mono.name: Si(111)
# Mono.notes: unfocused, detuned 75%, clockwise at E=12000eV
# Sample.formula: AsS
# Sample.name: AsS (realgar)
# Sample.prep: powder on tape (5 layers)
# Sample.reference: GaAs powder
# Sample.temperature: 10K
# Scan.start_time: 1997-04-19 17:37:58
# ///
#    Note: mono d_spacing is nominal!
#     exafs to K16, GaAs in IR
#     413  E XMU XMUR I0
#-------------
#   energy   i0   itrans  irefer
   11634.8900  548697.310000  72457.482500  29773.991428
   11644.9080  546116.310000  72424.524269  29932.009962
   11654.9440  543127.310000  72368.473031  30091.987767
   11664.9980  540459.310000  72343.481488  30257.992126
   11675.0700  538334.310000  72375.493985  30445.998130
   11684.8620  535307.310000  72283.507651  30588.003610
   11694.9690  532489.310000  72211.464564  30730.984793
   11705.0930  529350.310000  72105.507217  30875.003997
   11714.9370  526446.310000  72013.481970  31012.993166
   11725.0950  524880.310000  72107.514030  31222.005655
   11734.9740  522769.310000  72109.534601  31412.015435
   11744.8670  519848.310000  72023.471394  31548.986267
   11755.0790  516863.310000  71902.529782  31677.012143
   11765.0090  514399.310000  71835.503500  31831.002351
   11774.9540  511480.310000  71726.486743  31955.994676
   11784.9180  509507.310000  71713.513307  32121.005721
   11794.8960  506762.310000  71577.521353  32242.010532
   11804.8950  503909.310000  71440.526860  32355.011094
   11814.9090  501301.310000  71274.479885  32457.989989
   11824.9400  498693.310000  71048.468395  32524.986118
   11834.9890  496305.310000  70729.467452  32522.985376
   11845.0570  493535.310000  70005.471723  32287.985867
   11845.3610  493366.310000  69961.488086  32268.993656
   11845.9730  492690.310000  69835.522749  32219.011650
   11846.5830  492707.310000  69778.525585  32185.012892
   11846.8890  492272.310000  69714.479673  32156.989794
   11847.4990  492969.310000  69762.521241  32181.009793
   11848.1100  492170.310000  69580.531969  32088.015616
   11848.4150  491683.310000  69489.511699  32062.006480
   11849.0270  491543.310000  69393.489628  32008.994893
   11849.6370  491664.310000  69345.495178  31987.998541
   11849.9420  491629.310000  69302.501177  31964.000896
   11850.5560  490756.310000  69096.473238  31870.986791
   11850.8600  490830.310000  69066.476425  31857.988511
   11851.4710  490549.310000  68918.510818  31783.004716
   11852.0830  490636.310000  68825.487935  31728.995282
   11852.3900  490256.310000  68732.512185  31686.006116
   11853.0000  490241.310000  68596.515520  31613.006666
   11853.6100  491035.310000  68563.480563  31590.989568
   11853.9170  491136.310000  68496.503925  31556.001929
   11854.5290  491110.310000  68307.513409  31457.007317
   11855.1400  490803.310000  68094.500721  31345.999676
   11855.4460  490583.310000  67981.466168  31282.984129
   11856.0580  490707.310000  67740.473686  31155.987445
   11856.3630  490594.310000  67608.487758  31083.994292
   11856.9760  490096.310000  67261.494298  30901.997407
   11857.5880  490200.310000  66944.512424  30730.006986
   11857.8940  490138.310000  66787.478581  30640.988821
   11858.5040  490183.310000  66376.522901  30406.011123
   11859.1180  489729.310000  65834.486363  30116.994384
   11859.4240  490041.310000  65622.504510  29994.000960
   11860.0350  490023.310000  64997.509996  29646.004515
   11860.6470  488887.310000  64133.510563  29176.004654
   11860.9550  488994.310000  63767.512578  28974.005137
   11861.5660  489536.310000  62868.524745  28473.010453
   11861.8720  489498.310000  62259.492237  28127.996849
   11862.4840  488429.310000  60739.471145  27299.987729
   11863.0980  487881.310000  58934.470612  26310.985696
   11863.4030  488029.310000  58043.484682  25816.994213
   11864.0170  487613.310000  55369.488570  24377.995319
   11864.6280  487603.310000  51769.500682  22454.999537
   11864.9350  487036.310000  49719.523296  21394.010054
   11865.5470  487007.310000  44869.493566  18905.998133
   11865.8540  487217.310000  42569.508978  17750.004072
   11866.4670  486895.310000  35986.509452  14574.004540
   11867.0780  486859.310000  29056.499412  11353.999835
   11867.3880  486754.310000  25553.505246  9781.001668
   11867.9990  487280.310000  19094.503957  6958.003242
   11868.6110  487248.310000  13636.497937  4648.998732
   11868.9190  486963.310000  12016.500914  3968.998443
   11869.5320  487129.310000  9216.502355  2772.999570
   11870.1450  487689.310000  8618.504203  2402.001969
   11870.4510  487186.310000  8940.500900  2439.001213
   11871.0640  486616.310000  10655.497414  2860.999239
   11871.3710  486171.310000  11538.497479  3096.000297
   11871.9850  486673.310000  14405.499979  3891.999659
   11872.5990  485698.310000  17105.493510  4659.996373
   11872.9050  485110.310000  18389.508437  5037.003232
   11873.5180  484349.310000  20556.503467  5687.998116
   11874.1330  484927.310000  21991.499744  6148.001093
   11874.4390  484901.310000  22332.508243  6265.004995
   11875.0530  485133.310000  22650.495298  6432.998242
   11875.3580  484399.310000  22542.503851  6438.004213
   11875.9750  485345.310000  22174.491950  6428.997504
   11876.5880  485549.310000  21691.508009  6396.000339
   11876.8940  485165.310000  21509.499574  6387.000023
   11877.5090  484668.310000  21209.490786  6410.996763
   11878.1230  485294.310000  21168.506435  6501.003383
   11878.4300  485199.310000  21195.497032  6554.001342
   11879.0440  485175.310000  21361.501136  6677.003370
   11879.3510  484933.310000  21447.506174  6728.003052
   11879.9660  484755.310000  21696.506313  6862.002084
   11880.5800  484710.310000  21938.507224  6980.003467
   11880.8870  484500.310000  22032.509588  7021.002901
   11881.5000  483818.310000  22186.509937  7103.001518
   11882.1160  484162.310000  22376.497778  7189.000875
   11882.4240  484528.310000  22448.501441  7221.002986
   11883.0370  484518.310000  22588.506662  7275.002976
   11883.6520  483039.310000  22655.508823  7297.005347
   11883.9590  483355.310000  22740.489515  7324.998973
   11884.5740  483077.310000  22863.498867  7360.999337
   11884.8810  483104.310000  22903.496696  7364.996635
   11885.4960  482290.310000  22990.503415  7396.997951
   11886.1100  481991.310000  23083.500190  7430.997367
   11886.4190  481616.310000  23114.491528  7442.998261
   11887.0340  481761.310000  23222.503429  7484.002810
   11887.6480  481658.310000  23318.498258  7521.999264
   11887.9550  481949.310000  23375.511155  7538.000360
   11888.5720  482568.310000  23526.500953  7595.997668
   11888.8790  482458.310000  23575.511215  7609.005750
   11889.4930  482002.310000  23684.501914  7647.003766
   11890.1090  481563.310000  23796.504676  7680.001232
   11890.4170  482019.310000  23879.495826  7703.002404
   11891.0320  481903.310000  24018.503015  7747.998038
   11891.6480  481498.310000  24147.496771  7779.995201
   11891.9560  481456.310000  24221.495673  7806.997835
   11892.5700  481561.310000  24382.497379  7857.995546
   11892.8790  481628.310000  24446.490688  7880.999024
   11893.4950  481430.310000  24590.507281  7933.001676
   11894.1090  481438.310000  24736.505366  7991.001552
   11894.4190  481499.310000  24825.511109  8029.006512
   11895.0350  481098.310000  24942.511476  8091.002452
   11895.6490  480897.060000  25079.260626  8161.763287
   11896.2660  480585.340000  25196.518225  8231.043668
   11896.8810  480241.120000  25317.283660  8294.837316
   11897.4980  481084.440000  25483.566811  8371.154479
   11898.4220  480609.250000  25637.357622  8442.998938
   11899.0380  480060.590000  25701.653416  8459.349887
   11899.6550  480217.440000  25810.438454  8483.227691
   11900.5800  481105.810000  25984.760333  8533.624857
   11901.1950  481020.720000  26045.560883  8539.533202
   11902.1210  481091.090000  26117.892830  8554.971949
   11903.0450  481014.030000  26169.731014  8575.929967
   11903.6620  482158.470000  26249.050999  8596.394197
   11904.5870  482249.410000  26274.908342  8616.391938
   11905.5130  482404.870000  26266.247258  8623.902778
   11906.4380  482731.870000  26261.115970  8633.934967
   11907.3630  482721.370000  26213.501789  8631.485423
   11908.2910  483661.370000  26212.358895  8636.557044
   11909.2150  484314.910000  26154.763529  8626.150416
   11910.1430  485285.970000  26097.651933  8612.256353
   11911.0680  486007.530000  26001.055091  8574.889594
   11912.3030  486500.590000  25827.946784  8510.026992
   11913.2290  487359.220000  25716.388391  8462.701672
   11914.1560  487775.310000  25555.303526  8400.891822
   11915.3920  487300.940000  25290.728822  8301.596775
   11916.3180  488313.090000  25155.681560  8262.818714
   11917.5560  489585.750000  24969.114107  8221.565371
   11918.7930  490156.940000  24765.080722  8190.833192
   11919.7190  490685.620000  24633.532822  8177.607593
   11920.9570  492461.840000  24522.497840  8179.908587
   11922.1930  493420.560000  24405.996817  8163.743886
   11923.4320  494794.810000  24322.969514  8160.081457
   11924.6690  496148.560000  24266.466018  8145.937999
   11925.9080  495843.840000  24157.479407  8124.328173
   11927.1460  497606.620000  24189.988403  8140.225198
   11928.3840  499066.940000  24228.005958  8149.643916
   11929.6230  500668.750000  24282.518903  8167.580371
   11930.8610  501514.090000  24321.547911  8170.039166
   11932.4110  503014.970000  24435.107523  8187.027842
   11933.6510  503853.310000  24541.146900  8199.516377
   11934.8910  505731.220000  24739.702514  8247.534790
   11936.4410  507615.620000  25010.769388  8309.076800
   11937.9920  508694.530000  25262.338728  8367.128029
   11939.2320  509290.970000  25457.426389  8431.709200
   11940.7840  510401.940000  25766.998184  8538.800429
   11942.3360  511086.410000  26061.097254  8651.413134
   11943.5770  511827.370000  26301.695380  8746.541807
   11945.1300  514719.870000  26720.813964  8903.200430
   11946.6840  518006.910000  27143.445032  9058.373531
   11948.2370  520280.440000  27496.561869  9195.065430
   11949.7910  520990.470000  27751.190768  9298.273612
   11951.3460  523817.030000  28074.324617  9418.006519
   11952.8990  526060.120000  28335.983615  9524.253096
   11954.7670  527132.750000  28520.137433  9610.021059
   11956.3220  529129.810000  28704.812432  9700.319172
   11957.8780  530406.440000  28805.967789  9760.118879
   11959.7450  532324.620000  28933.656180  9817.450753
   11961.3010  534114.250000  29013.834483  9843.297507
   11963.1710  536256.440000  29093.549400  9866.670681
   11964.7290  538153.120000  29144.730638  9876.548705
   11966.5980  540913.370000  29217.450091  9904.954997
   11968.4700  541788.060000  29177.675866  9910.877504
   11970.0270  545151.310000  29274.399274  9989.328660
   11971.9000  546921.060000  29273.640737  10051.294956
   11973.7710  549305.370000  29294.374950  10119.775870
   11975.6440  552456.120000  29344.613688  10186.771934
   11977.5190  554243.440000  29335.371684  10217.296430
   11979.3920  556381.250000  29337.652542  10230.339445
   11981.2670  558795.620000  29361.426501  10253.896597
   11983.1410  560566.500000  29350.714190  10255.979276
   11985.0170  562233.870000  29340.502581  10247.583299
   11987.2060  562978.750000  29282.787416  10213.699253
   11989.0830  565456.120000  29331.607754  10209.337038
   11991.2730  570928.060000  29540.913838  10244.502418
   11993.1510  573374.500000  29613.729282  10239.175317
   11995.3440  575174.440000  29683.055725  10218.372941
   11997.2250  578044.940000  29834.893058  10235.085948
   11999.4170  580005.870000  29980.231791  10266.326054
   12001.2990  582344.370000  30174.070829  10338.067683
   12003.4940  584383.440000  30390.447824  10429.354129
   12005.6880  586792.940000  30682.302263  10554.138046
   12007.8860  590964.000000  31091.675105  10720.449673
   12010.0830  591594.560000  31348.566344  10841.295884
   12012.2820  593421.620000  31678.941093  10982.643261
   12014.4810  597674.250000  32161.846963  11180.507643
   12016.6820  602719.370000  32679.262378  11394.909250
   12018.8810  606040.000000  33103.168090  11575.814799
   12021.0830  608170.120000  33436.584521  11730.246131
   12023.6020  611562.810000  33833.507734  11907.192919
   12025.8040  614599.000000  34147.965971  12057.670611
   12028.0080  616927.690000  34370.884354  12166.640496
   12030.5270  619871.870000  34608.343527  12289.150444
   12032.7330  623756.620000  34877.302527  12413.185572
   12035.2570  625947.870000  35013.793816  12486.737648
   12037.7800  628782.620000  35166.734768  12575.790801
   12039.9890  632687.870000  35370.219328  12674.374564
   12042.5140  635036.690000  35458.208468  12729.482717
   12045.0400  638658.000000  35594.712439  12810.102274
   12047.5660  642384.810000  35740.715054  12889.248531
   12050.0960  645141.120000  35820.239527  12947.919043
   12052.6250  647162.000000  35859.253452  12970.099237
   12055.1540  649056.370000  35893.799677  12972.809234
   12057.6880  651169.250000  35954.835920  12980.024426
   12060.2210  657230.690000  36237.376392  13073.758891
   12062.7540  661938.620000  36462.408749  13163.012757
   12065.2880  666088.060000  36659.986861  13256.803390
   12068.1420  667636.000000  36737.062205  13315.105130
   12070.6780  672299.440000  36984.645370  13413.931573
   12073.2180  675686.440000  37201.724669  13498.264509
   12076.0730  679495.940000  37452.305067  13570.119210
   12078.6150  681639.940000  37624.392291  13621.488345
   12081.4730  686649.500000  37986.011472  13734.390911
   12084.3350  689516.560000  38240.138665  13813.808590
   12086.8780  692714.120000  38520.762777  13915.737429
   12089.7420  697292.190000  38897.871575  14061.190193
   12092.6060  699004.810000  39120.499890  14177.151558
   12095.4740  704034.870000  39537.669915  14371.655319
   12098.3400  706424.560000  39819.327760  14533.675668
   12101.2090  709662.690000  40152.462565  14704.194197
   12104.0800  712828.310000  40480.144392  14878.252634
   12106.9520  717795.500000  40914.303042  15090.816946
   12109.8250  719952.190000  41191.000871  15227.911198
   12112.6970  724080.440000  41583.210464  15429.528232
   12115.8940  727795.120000  41952.900821  15636.654100
   12118.7710  732753.370000  42381.086038  15851.294655
   12121.6500  735002.190000  42639.816603  16001.468172
   12124.8500  740170.440000  43066.028480  16213.149070
   12127.7310  742693.250000  43312.752479  16367.353427
   12130.9360  748633.560000  43754.025711  16562.092916
   12133.8190  750990.370000  43983.775566  16679.340016
   12137.0270  754078.690000  44235.990655  16788.092007
   12140.2350  758372.560000  44539.782067  16905.385991
   12143.4450  764089.940000  44906.048887  17037.190052
   12146.3370  765281.810000  45012.811312  17069.506825
   12149.5510  770406.250000  45325.100462  17199.353108
   12152.7650  775145.120000  45616.900070  17309.717750
   12155.9810  778780.560000  45838.177406  17401.588788
   12159.2000  783602.560000  46114.016670  17521.003356
   12162.4210  786604.000000  46292.314100  17601.915743
   12165.6420  790564.000000  46549.144003  17733.356513
   12169.1890  794561.500000  46816.485265  17865.319763
   12172.4150  798856.500000  47123.335780  18015.803234
   12175.6430  802797.060000  47404.679845  18166.798225
   12178.8720  807503.060000  47755.528702  18333.315880
   12182.4260  812143.690000  48128.873738  18500.343188
   12185.6580  815317.750000  48415.737438  18637.897625
   12189.2180  819135.310000  48785.116856  18810.975146
   12192.4520  823049.440000  49146.039907  18990.583894
   12196.0160  828018.060000  49600.403349  19222.686417
   12199.5790  831542.250000  49985.307344  19409.320894
   12202.8220  835638.870000  50384.699421  19616.466598
   12206.3900  840156.060000  50824.608689  19833.137706
   12209.9610  842977.750000  51163.048567  20018.336206
   12213.5340  848713.000000  51689.004729  20294.056997
   12217.1070  853067.690000  52110.418478  20524.276388
   12220.6860  857141.940000  52518.397099  20758.039744
   12224.2630  860756.690000  52893.839393  20978.304287
   12227.8450  865501.000000  53323.787705  21218.088097
   12231.4270  869241.810000  53685.253181  21416.392831
   12235.0130  874490.060000  54137.219642  21645.217469
   12238.9270  876960.940000  54419.712654  21819.567374
   12242.5160  883299.250000  54937.712566  22070.435322
   12246.1080  886471.120000  55264.212516  22240.822407
   12250.0290  890704.500000  55647.253457  22417.738048
   12253.6250  895053.370000  56028.772184  22586.164934
   12257.5500  898968.750000  56390.757616  22734.094841
   12261.1520  904173.690000  56822.335376  22931.574887
   12265.0810  909010.120000  57243.335617  23138.542352
   12269.0160  910978.060000  57490.907999  23271.054998
   12272.6230  914671.560000  57816.953743  23439.076138
   12276.5610  920787.560000  58309.518483  23677.616427
   12280.5020  924396.060000  58650.588912  23864.677006
   12284.4450  928962.060000  59033.194147  24057.266646
   12288.3910  931977.620000  59341.257230  24233.355280
   12292.3380  937931.620000  59807.857375  24491.978274
   12296.2890  941183.250000  60136.973994  24687.125187
   12300.2430  943715.310000  60410.597344  24860.786985
   12304.1980  950568.870000  60968.699889  25142.959473
   12308.1580  954713.000000  61345.313076  25378.647522
   12312.1190  958855.620000  61744.475807  25611.877555
   12316.0840  963803.810000  62212.115100  25862.611577
   12320.3800  966792.440000  62554.228040  26077.853499
   12324.3490  972346.620000  63064.899430  26355.636099
   12328.6520  976143.310000  63488.095104  26607.941122
   12332.6270  980436.560000  63942.736577  26868.740343
   12336.6040  985379.250000  64446.897649  27158.065999
   12340.9150  989380.500000  64905.605394  27416.926817
   12345.2290  993277.250000  65353.815861  27691.304017
   12349.2150  996748.560000  65776.494072  27924.181715
   12353.5360  1001501.400000  66294.739689  28202.607917
   12357.8590  1006276.700000  66831.422226  28504.525454
   12362.1870  1010088.500000  67286.675455  28754.984604
   12366.1830  1016026.800000  67877.391108  29054.945383
   12370.5150  1018364.700000  68240.647003  29288.439575
   12374.8510  1022151.100000  68693.364448  29552.433937
   12379.1890  1026741.900000  69179.658274  29817.976916
   12383.5320  1031010.400000  69638.430079  30078.025980
   12387.8760  1035604.300000  70120.725044  30346.603495
   12392.5600  1038102.700000  70451.462610  30533.666640
   12396.9110  1043347.700000  70967.765346  30813.276883
   12401.2650  1048957.100000  71501.520233  31110.385784
   12405.6210  1052783.100000  71908.861738  31351.045256
   12410.3170  1055467.600000  72251.650460  31558.194014
   12414.6820  1059963.600000  72716.974695  31833.880492
   12419.0490  1063961.100000  73146.853273  32090.107629
   12423.7550  1068691.300000  73624.149842  32382.808974
   12428.1290  1074297.800000  74175.990365  32707.052186
   12432.8420  1080279.900000  74755.325450  33046.803787
   12437.5600  1082888.500000  75126.194053  33292.088526
   12441.9420  1087078.600000  75588.578491  33599.893375
   12446.6660  1091168.300000  76082.420740  33911.199755
   12451.3950  1094796.400000  76533.816498  34205.042985
   12456.1250  1099637.000000  77057.693253  34536.395304
   12460.5220  1103014.300000  77490.084312  34827.265933
   12465.2610  1105814.900000  77912.999116  35108.669990
   12470.0030  1111299.100000  78505.443814  35467.598817
   12474.7480  1116192.900000  79073.355911  35821.027362
   12479.4980  1119891.100000  79552.782122  36145.983192
   12484.2500  1123918.900000  80067.727865  36448.462439
   12489.0070  1126907.100000  80499.186550  36733.460848
   12494.1070  1131783.900000  81096.137977  37100.974625
   12498.8710  1136851.300000  81693.603187  37451.010882
   12503.6400  1140590.100000  82199.567381  37770.559088
   12508.4110  1144568.400000  82726.989385  38101.604789
   12513.5270  1144616.300000  82965.988828  38301.200895
   12518.3070  1150858.600000  83662.475157  38711.311784
   12523.4320  1155080.500000  84212.495891  39060.948859
   12528.2200  1156537.900000  84557.963047  39308.086160
   12533.3520  1161011.900000  85125.976131  39670.749647
   12538.1460  1165262.300000  85673.494113  40015.936644
   12543.2880  1167960.300000  86116.598378  40321.679336
   12548.0900  1174491.800000  86808.090199  40749.881120
   12553.2390  1178996.800000  87380.154038  41117.634238
   12558.3930  1181887.300000  87829.711797  41431.901285
   12563.5510  1185450.300000  88320.741790  41779.675173
   12568.7130  1189604.800000  88849.366991  42137.004868
   12573.5360  1194303.900000  89423.434990  42507.825321
   12578.7070  1197840.400000  89913.990094  42861.155423
   12583.8810  1200719.500000  90352.098168  43182.025809
   12589.0610  1204286.100000  90854.672298  43535.396603
   12594.2440  1207996.100000  91360.767802  43905.295973
   12599.4320  1212364.900000  91944.413552  44301.724051
   12604.9720  1214573.000000  92359.526120  44646.662374
   12610.1680  1216897.600000  92783.140544  44972.111271
   12615.3690  1221501.800000  93389.261398  45383.085262
   12620.5740  1226049.500000  93993.956804  45806.604825
   12625.7840  1230648.800000  94633.050774  46239.596077
   12631.3480  1234883.500000  95250.752347  46681.148585
   12636.5660  1235371.800000  95564.867370  46956.186104
   12642.1370  1238249.500000  96089.588292  47337.782816
   12647.3640  1241513.800000  96647.730184  47734.853884
   12652.9450  1244084.500000  97146.504724  48101.511322
   12658.1840  1246584.900000  97622.696389  48456.636797
   12663.7740  1250430.600000  98197.352133  48870.270726
   12669.0200  1255065.000000  98870.572177  49326.439874
   12674.6200  1255936.900000  99230.269805  49630.124934
   12680.2280  1259325.300000  99808.503025  50037.332676
   12685.8370  1263768.100000  100456.328692  50508.108749
   12691.1020  1265991.500000  100923.508530  50876.330137
   12696.7220  1267474.500000  101338.319480  51214.127254
   12702.3490  1269290.900000  101759.549964  51558.401613
   12707.9790  1271595.900000  102226.302201  51934.198549
   12713.6130  1270250.400000  102402.622781  52179.548419
   12719.2550  1271248.300000  102783.374172  52516.384682
   12724.9010  1268955.800000  102891.664789  52707.746467
   12730.5510  1272302.900000  103441.459551  53148.625543
   12736.2080  1274681.400000  103909.730265  53528.019406
   12741.8680  1277541.400000  104439.580650  53967.959539
   12747.8890  1281180.000000  105051.930832  54444.416867
   12753.5620  1284035.100000  105588.748819  54859.376510
   12759.2370  1287153.600000  106137.088662  55300.859328
   12764.9190  1288032.800000  106490.882609  55649.838307
   12770.9620  1290173.400000  106996.262819  56065.374236
   12776.6540  1293567.600000  107565.101710  56512.404434
   12782.3510  1296909.300000  108143.521886  56976.987102
   12788.4100  1297648.400000  108536.441429  57363.090984
   12794.1190  1300497.100000  109081.777691  57788.665335
   12800.1890  1304792.400000  109771.642055  58320.766268
   12806.2660  1308612.000000  110438.114301  58844.443574
   12811.9890  1311618.300000  110991.985644  59290.589321
   12818.0770  1316358.000000  111732.442981  59854.284178
   12824.1700  1317955.400000  112222.316808  60291.454383
   12829.9100  1321311.100000  112828.704612  60785.147841
   12836.0160  1321412.500000  113182.721729  61139.419341
   12842.1270  1319952.300000  113398.127472  61414.156997
   12848.2440  1326940.600000  114350.154400  62104.476439
   12854.3660  1327685.500000  114772.565598  62504.232828
   12860.4950  1332874.900000  115560.530620  63117.544097
   12866.2690  1332572.800000  115868.020457  63432.388378
   12872.4080  1333990.100000  116346.034326  63882.752125
   12878.5550  1338299.000000  117059.538752  64457.628380
   12885.0690  1343683.500000  117896.486012  65108.994386

