# XDI/1.0
# Column.1: energy eV
# Column.2: i0
# Column.3: itrans
# Column.4: irefer
# Beamline.name: SSRL 2-3
# Beamline.notes: vert slits = 0.6mm
# Detector.I0: N2 15cm
# Detector.I1: Ar 30cm
# Detector.I2: Ar 15cm
# Element.edge: K
# Element.symbol: As
# Mono.d_spacing: 3.13550
# Mono.name: Si(111)
# Mono.notes: unfocused, detuned 75%, clockwise at E=12000eV
# Sample.formula: AsS
# Sample.name: AsS (realgar)
# Sample.prep: powder on tape (5 layers)
# Sample.reference: GaAs powder
# Sample.temperature: 100K
# Scan.start_time: 1997-04-20 00:46:37
# ///
#    Note: mono d_spacing is nominal!
#     exafs to K16, GaAs in IR
#     413  E XMU XMUR I0
#-------------
#   energy   i0   itrans  irefer
   11634.8900  499361.310000  71714.495926  29242.999213
   11644.9080  497388.310000  71726.482357  29425.993868
   11654.9440  494904.310000  71684.491759  29587.995770
   11664.9980  492251.310000  71590.499654  29719.998779
   11675.0700  489943.310000  71563.465870  29888.987172
   11684.8620  487476.310000  71501.519011  30037.007188
   11694.9690  484297.310000  71341.484961  30139.994026
   11705.0930  482792.310000  71399.478199  30340.991748
   11714.9370  480412.310000  71342.535071  30493.014188
   11725.0950  477715.310000  71209.480973  30611.993276
   11734.9740  475508.310000  71179.464593  30782.983643
   11744.8670  472668.310000  71010.510063  30881.005778
   11755.0790  470283.310000  70969.506604  31037.001837
   11765.0090  468228.310000  70915.499392  31193.000255
   11774.9540  465979.310000  70856.466623  31341.983793
   11784.9180  463538.310000  70732.491456  31462.996320
   11794.8960  461395.310000  70651.488741  31599.995588
   11804.8950  459486.310000  70587.505160  31748.003710
   11814.9090  456898.310000  70374.490716  31807.994251
   11824.9400  454394.310000  70123.526092  31862.011731
   11834.9890  451678.310000  69680.480122  31800.990049
   11845.0570  449173.310000  68868.494160  31519.998089
   11845.3610  449560.310000  68888.483514  31531.990951
   11845.9730  449412.310000  68834.477884  31504.990172
   11846.5830  449139.310000  68733.527434  31460.012875
   11846.8890  448844.310000  68659.470719  31424.985067
   11847.4990  448942.310000  68609.526405  31404.013209
   11848.1100  448409.310000  68446.502429  31320.002586
   11848.4150  448075.310000  68359.484753  31284.992852
   11849.0270  448130.310000  68279.533153  31247.015282
   11849.6370  447453.310000  68101.497121  31156.998691
   11849.9420  448045.310000  68140.473810  31168.989233
   11850.5560  447647.310000  67979.532546  31092.016060
   11850.8600  447498.310000  67879.478738  31044.990573
   11851.4710  447744.310000  67805.501375  31000.999096
   11852.0830  447917.310000  67672.482807  30931.993589
   11852.3900  447867.310000  67620.487422  30898.993344
   11853.0000  447758.310000  67444.470512  30806.986548
   11853.6100  448203.310000  67321.519908  30740.009478
   11853.9170  447893.310000  67153.500873  30659.999488
   11854.5290  447627.310000  66868.498973  30502.998458
   11855.1400  447211.310000  66542.524684  30323.012485
   11855.4460  447020.310000  66415.471232  30261.985771
   11856.0580  447026.310000  66086.497485  30084.998293
   11856.3630  446857.310000  65868.499762  29970.001358
   11856.9760  446591.310000  65435.497150  29727.997576
   11857.5880  446750.310000  64954.488513  29468.993652
   11857.8940  446670.310000  64714.530628  29331.014189
   11858.5040  446530.310000  64076.474338  28980.989529
   11859.1180  446664.310000  63368.527603  28587.013125
   11859.4240  446673.310000  62950.485775  28348.994929
   11860.0350  446501.310000  61904.528432  27776.013770
   11860.6470  446279.310000  60590.493729  27055.997821
   11860.9550  446453.310000  59974.521237  26717.009593
   11861.5660  446366.310000  58162.507015  25722.002082
   11861.8720  445972.310000  57031.506737  25113.003128
   11862.4840  445233.310000  54298.491022  23647.995085
   11863.0980  445092.310000  50700.496267  21739.998199
   11863.4030  445149.310000  48818.520240  20771.007704
   11864.0170  444971.310000  43803.503737  18230.002178
   11864.6280  444554.310000  37480.516191  15151.005959
   11864.9350  444879.310000  33930.490397  13474.996161
   11865.5470  445133.310000  26853.490442  10251.995918
   11865.8540  444927.310000  23806.506377  8913.002098
   11866.4670  444657.310000  17629.504590  6260.999868
   11867.0780  444989.310000  12455.499589  4101.998358
   11867.3880  445200.310000  10705.496656  3376.998562
   11867.9990  444968.310000  8855.502933  2565.001507
   11868.6110  444372.310000  8890.504056  2426.002272
   11868.9190  444494.310000  9378.503924  2529.000724
   11869.5320  444651.310000  11353.503810  3034.001581
   11870.1450  444158.310000  13964.495224  3750.998431
   11870.4510  443607.310000  15381.503777  4148.001841
   11871.0640  443626.310000  18096.500262  4927.001381
   11871.3710  443476.310000  19139.502334  5226.001135
   11871.9850  442957.310000  21083.492740  5811.997989
   11872.5990  442567.310000  22313.493070  6211.997892
   11872.9050  442632.310000  22611.495455  6331.001417
   11873.5180  443187.310000  22723.497070  6434.997820
   11874.1330  442821.310000  22377.507507  6422.004685
   11874.4390  442852.310000  22165.506703  6406.001776
   11875.0530  443109.310000  21725.495724  6388.998259
   11875.3580  443155.310000  21550.505978  6397.001056
   11875.9750  442676.310000  21299.504846  6434.999902
   11876.5880  442507.310000  21293.502603  6521.999392
   11876.8940  442625.310000  21350.509655  6579.005610
   11877.5090  442695.310000  21535.500201  6706.000654
   11878.1230  442329.310000  21762.507504  6831.003922
   11878.4300  441861.310000  21862.504683  6881.998260
   11879.0440  442313.310000  22107.490265  7000.996367
   11879.3510  442238.310000  22192.489031  7036.999695
   11879.9660  441997.310000  22357.499125  7116.000187
   11880.5800  441670.310000  22500.503771  7185.001288
   11880.8870  441979.310000  22591.507719  7222.001070
   11881.5000  441522.310000  22701.489772  7260.999932
   11882.1160  441023.310000  22806.503379  7296.003491
   11882.4240  441166.310000  22865.493145  7312.995161
   11883.0370  440955.310000  22975.502336  7343.000396
   11883.6520  440199.310000  23046.492799  7365.998406
   11883.9590  439742.310000  23080.495178  7377.994814
   11884.5740  440026.310000  23194.507862  7416.005134
   11884.8810  440017.310000  23242.489952  7433.999964
   11885.4960  439873.310000  23338.509247  7469.004722
   11886.1100  439531.310000  23421.489477  7507.000271
   11886.4190  439588.310000  23479.498352  7528.001713
   11887.0340  440464.310000  23638.492478  7584.998542
   11887.6480  440348.310000  23749.489307  7620.995677
   11887.9550  439910.310000  23780.498766  7630.999748
   11888.5720  439893.310000  23908.504208  7670.004639
   11888.8790  439951.310000  23985.489940  7691.994108
   11889.4930  439866.310000  24118.491775  7733.997267
   11890.1090  439667.310000  24250.502220  7771.003661
   11890.4170  439677.310000  24319.489635  7789.993858
   11891.0320  439525.310000  24458.487768  7834.995517
   11891.6480  439322.310000  24588.511829  7875.001184
   11891.9560  438899.310000  24647.488887  7899.994194
   11892.5700  438946.310000  24791.506258  7960.000836
   11892.8790  439204.310000  24874.488088  7993.995549
   11893.4950  439262.310000  25003.498416  8050.995527
   11894.1090  438646.310000  25107.495232  8115.001748
   11894.4190  438735.310000  25185.496490  8158.997391
   11895.0350  438733.310000  25312.509854  8227.002517
   11895.6490  438834.060000  25449.251862  8299.757904
   11896.2660  438222.340000  25532.506554  8342.036800
   11896.8810  438434.120000  25652.282681  8393.835447
   11897.4980  438741.440000  25782.559233  8433.157564
   11898.4220  438360.250000  25894.356803  8458.992366
   11899.0380  438142.590000  25959.649893  8475.353856
   11899.6550  438634.440000  26060.437389  8490.223758
   11900.5800  438817.810000  26154.736849  8512.616146
   11901.1950  439000.720000  26202.558356  8525.537348
   11902.1210  438769.090000  26227.888306  8536.971194
   11903.0450  439432.030000  26288.722690  8563.928760
   11903.6620  439680.470000  26305.058486  8574.402048
   11904.5870  439791.410000  26289.918700  8578.392540
   11905.5130  439550.870000  26243.266861  8578.906481
   11906.4380  440163.870000  26231.135666  8578.937655
   11907.3630  441207.370000  26214.481621  8588.481901
   11908.2910  441437.370000  26147.357994  8570.552098
   11909.2150  441465.910000  26027.763703  8529.150808
   11910.1430  442245.970000  25948.640538  8501.250076
   11911.0680  443068.530000  25846.041437  8463.877935
   11912.3030  444202.590000  25683.961788  8392.032486
   11913.2290  444117.220000  25506.377951  8329.700795
   11914.1560  445329.310000  25378.288651  8285.881406
   11915.3920  446481.940000  25192.742363  8230.600292
   11916.3180  446755.090000  25028.684506  8196.822239
   11917.5560  447509.750000  24840.125892  8170.567151
   11918.7930  447841.940000  24644.071332  8149.824210
   11919.7190  449123.620000  24571.547621  8149.618960
   11920.9570  450114.840000  24459.501509  8140.916373
   11922.1930  450917.560000  24366.994423  8124.738386
   11923.4320  451582.810000  24280.966380  8106.074889
   11924.6690  452628.560000  24251.460280  8105.937625
   11925.9080  454058.840000  24269.460567  8120.321875
   11927.1460  455658.620000  24323.984713  8137.222363
   11928.3840  456490.940000  24355.990926  8140.640425
   11929.6230  456631.750000  24363.528181  8137.583490
   11930.8610  457982.090000  24467.558043  8155.039490
   11932.4110  459579.970000  24640.094248  8192.023719
   11933.6510  461252.310000  24837.142233  8231.516013
   11934.8910  462299.220000  25023.699199  8270.536201
   11936.4410  462940.620000  25252.768552  8321.069526
   11937.9920  464405.530000  25557.329837  8419.127138
   11939.2320  465172.970000  25782.405835  8491.700841
   11940.7840  465587.940000  26061.001305  8605.796553
   11942.3360  467008.410000  26395.096812  8730.409414
   11943.5770  468782.370000  26698.693481  8840.545924
   11945.1300  471709.870000  27126.825642  8996.207633
   11946.6840  473997.910000  27487.432835  9132.376098
   11948.2370  475478.440000  27784.561903  9252.062866
   11949.7910  476571.470000  28034.186206  9349.274076
   11951.3460  478563.030000  28298.333793  9455.002120
   11952.8990  479806.120000  28482.991101  9528.259866
   11954.7670  481492.720000  28675.127566  9622.018940
   11956.3220  483490.840000  28837.809890  9706.311748
   11957.8780  485213.470000  28959.981782  9761.127716
   11959.7450  486898.620000  29051.668843  9793.451313
   11961.3010  488431.280000  29106.857113  9807.297840
   11963.1710  490613.440000  29175.535317  9831.667234
   11964.7290  492631.160000  29238.745777  9848.554960
   11966.5980  494693.340000  29278.458927  9879.955972
   11968.4700  496593.090000  29291.663647  9921.875425
   11970.0270  498137.310000  29301.413639  9976.324759
   11971.9000  499399.090000  29270.627993  10027.281774
   11973.7710  501695.340000  29295.386405  10084.776838
   11975.6440  504353.160000  29335.627617  10145.778798
   11977.5190  505909.470000  29323.397306  10154.304865
   11979.3920  508323.280000  29360.658240  10181.339898
   11981.2670  510198.620000  29364.430674  10191.898101
   11983.1410  512062.470000  29378.691402  10197.969474
   11985.0170  513220.840000  29349.492061  10180.582605
   11987.2060  515236.750000  29369.787320  10159.695831
   11989.0830  518972.120000  29517.584279  10186.335477
   11991.2730  522478.060000  29653.910117  10191.499521
   11993.1510  524100.500000  29714.717442  10176.167429
   11995.3440  525730.440000  29802.062720  10169.373546
   11997.2250  528704.940000  30003.904010  10215.084566
   11999.4170  530935.870000  30193.245542  10270.320613
   12001.2990  533331.370000  30424.096374  10366.080011
   12003.4940  535582.440000  30690.428404  10476.344676
   12005.6880  538924.940000  31058.306829  10624.145662
   12007.8860  540135.000000  31323.672084  10745.457513
   12010.0830  542166.560000  31677.551027  10896.288869
   12012.2820  544708.620000  32066.953360  11059.646234
   12014.4810  548261.250000  32524.866079  11253.519306
   12016.6820  551011.370000  32927.245447  11424.902972
   12018.8810  554745.000000  33368.173241  11609.811374
   12021.0830  557603.120000  33733.602751  11772.254566
   12023.6020  560303.810000  34084.514281  11940.191597
   12025.8040  562956.000000  34355.958650  12067.663923
   12028.0080  564807.690000  34536.899442  12161.646879
   12030.5270  568057.870000  34803.337847  12288.148943
   12032.7330  569551.620000  34914.297636  12354.179411
   12035.2570  572496.870000  35096.775781  12452.734884
   12037.7800  576168.620000  35315.761331  12557.804702
   12039.9890  578959.870000  35466.236734  12632.390197
   12042.5140  581521.690000  35570.237800  12702.492974
   12045.0400  584762.000000  35705.720957  12779.111538
   12047.5660  587540.810000  35806.724374  12841.250795
   12050.0960  590892.120000  35942.249243  12912.921319
   12052.6250  592843.000000  35991.277177  12932.100205
   12055.1540  594172.370000  36007.795708  12923.798574
   12057.6880  597319.250000  36155.812627  12964.018698
   12060.2210  602627.690000  36423.369087  13058.765270
   12062.7540  606875.620000  36648.439928  13160.025462
   12065.2880  609075.060000  36753.979714  13224.795458
   12068.1420  612696.000000  36966.048794  13322.094417
   12070.6780  615446.440000  37146.625150  13394.925258
   12073.2180  619242.440000  37401.726258  13473.258377
   12076.0730  621972.940000  37613.295325  13537.107075
   12078.6150  625338.940000  37877.406764  13614.491906
   12081.4730  628218.500000  38141.999951  13695.386659
   12084.3350  630890.560000  38401.111655  13779.795271
   12086.8780  635358.120000  38783.729210  13919.723740
   12089.7420  637777.190000  39044.889240  14037.200588
   12092.6060  642013.810000  39436.501221  14218.157065
   12095.4740  644280.870000  39717.653626  14376.655777
   12098.3400  647480.560000  40054.329497  14554.682599
   12101.2090  649253.690000  40315.480794  14695.209172
   12104.0800  654494.310000  40783.145340  14916.259978
   12106.9520  655880.500000  41039.319023  15059.825084
   12109.8250  660599.190000  41475.018694  15269.918574
   12112.6970  663304.440000  41803.207470  15440.526910
   12115.8940  668977.120000  42303.882184  15683.646719
   12118.7710  671591.370000  42595.093697  15856.298058
   12121.6500  676122.190000  43001.836073  16057.475657
   12124.8500  678147.440000  43247.037219  16206.152068
   12127.7310  682614.250000  43630.782083  16399.366603
   12130.9360  685487.560000  43898.025924  16526.093425
   12133.8190  690045.370000  44263.762899  16683.335535
   12137.0270  692857.690000  44498.995886  16782.094670
   12140.2350  697246.560000  44823.793029  16909.390066
   12143.4450  700592.940000  45074.065359  16984.197172
   12146.3370  704357.810000  45335.821423  17091.510528
   12149.5510  707364.250000  45529.102566  17166.352851
   12152.7650  711820.120000  45832.902988  17283.718636
   12155.9810  714926.560000  46033.197645  17374.597472
   12159.2000  718581.560000  46273.998383  17479.995510
   12162.4210  722921.000000  46564.337071  17615.923710
   12165.6420  724699.000000  46691.138655  17695.355362
   12169.1890  729738.500000  47064.464676  17870.311327
   12172.4150  733579.500000  47360.330839  18013.800817
   12175.6430  737996.060000  47693.660516  18175.791764
   12178.8720  741135.060000  47976.527260  18324.315173
   12182.4260  745098.690000  48337.887788  18482.349201
   12185.6580  749224.750000  48709.739765  18652.897674
   12189.2180  751854.310000  49020.107372  18808.971594
   12192.4520  756370.440000  49441.999543  19014.566744
   12196.0160  759639.060000  49805.399379  19205.686353
   12199.5790  764348.250000  50270.303240  19431.320246
   12202.8220  768279.870000  50692.708355  19629.471421
   12206.3900  772254.060000  51120.653271  19850.156459
   12209.9610  775701.750000  51516.034232  20056.329777
   12213.5340  779678.000000  51939.003162  20280.055470
   12217.1070  783982.690000  52378.433963  20528.283969
   12220.6860  788308.940000  52810.396190  20776.039360
   12224.2630  791835.690000  53204.815447  21000.295481
   12227.8450  795670.000000  53593.807357  21208.096667
   12231.4270  800412.810000  54041.248013  21435.390271
   12235.0130  803877.060000  54397.236179  21624.225714
   12238.9270  807628.940000  54787.755016  21843.583572
   12242.5160  810310.250000  55083.719412  22001.437652
   12246.1080  815051.120000  55518.252202  22214.837805
   12250.0290  819588.500000  55953.242412  22401.734413
   12253.6250  822981.370000  56278.780509  22539.169532
   12257.5500  827650.750000  56713.782902  22732.105532
   12261.1520  831987.690000  57116.305998  22908.564701
   12265.0810  835227.120000  57448.373244  23074.559444
   12269.0160  838758.060000  57797.891616  23253.049804
   12272.6230  843732.560000  58241.931763  23469.067379
   12276.5610  847118.560000  58577.499850  23640.609180
   12280.5020  852346.060000  59040.616250  23863.686688
   12284.4450  856020.060000  59399.203100  24055.270267
   12288.3910  859513.620000  59748.236224  24261.348108
   12292.3380  864832.620000  60217.859956  24509.980092
   12296.2890  868728.250000  60586.940139  24716.110070
   12300.2430  873465.310000  61036.583566  24968.781761
   12304.1980  876198.870000  61335.701875  25161.958880
   12308.1580  880716.000000  61775.337363  25405.658200
   12312.1190  885610.620000  62243.454000  25666.867894
   12316.0840  888250.810000  62569.075022  25868.596606
   12320.3800  892666.440000  63040.223043  26127.852310
   12324.3490  895805.620000  63413.923283  26348.644920
   12328.6520  901245.310000  63966.050693  26652.921909
   12332.6270  905234.560000  64421.736048  26919.741237
   12336.6040  909892.250000  64924.897961  27195.066710
   12340.9150  913335.500000  65360.577290  27460.913956
   12345.2290  917776.250000  65890.786705  27751.295521
   12349.2150  919958.560000  66225.502676  27952.186501
   12353.5360  926249.370000  66888.730260  28290.605727
   12357.8590  928748.690000  67274.427420  28514.527252
   12362.1870  934353.500000  67874.665243  28834.980370
   12366.1830  936988.810000  68256.409367  29058.953326
   12370.5150  941603.690000  68798.674227  29363.452089
   12374.8510  945571.060000  69280.400233  29640.448778
   12379.1890  948785.940000  69692.674333  29874.985038
   12383.5320  954186.370000  70254.404852  30167.014995
   12387.8760  957326.250000  70650.715922  30389.596895
   12392.5600  959303.690000  70967.476766  30579.672731
   12396.9110  965362.690000  71569.776955  30902.283328
   12401.2650  970924.120000  72131.534400  31205.392580
   12405.6210  974293.120000  72523.830393  31434.031223
   12410.3170  978368.620000  72982.706154  31696.219373
   12414.6820  981411.620000  73349.006791  31925.895889
   12419.0490  984825.190000  73755.838142  32180.100137
   12423.7550  989129.250000  74255.140726  32480.805363
   12428.1290  994792.810000  74837.005181  32812.055196
   12432.8420  1000330.900000  75413.335611  33153.809406
   12437.5600  1002902.500000  75806.237248  33414.110301
   12441.9420  1007434.600000  76306.595678  33729.903178
   12446.6660  1010170.200000  76719.438405  34019.208143
   12451.3950  1015253.400000  77292.854710  34364.058787
   12456.1250  1019944.100000  77845.734137  34704.411133
   12460.5220  1023274.200000  78300.091003  34993.270278
   12465.2610  1025841.900000  78708.009303  35264.673787
   12470.0030  1032455.100000  79435.457550  35693.604862
   12474.7480  1035638.900000  79882.340629  35989.020648
   12479.4980  1039799.100000  80432.779667  36338.983854
   12484.2500  1042729.900000  80873.682081  36619.440366
   12489.0070  1045497.100000  81304.124333  36895.431842
   12494.1070  1050153.900000  81910.157293  37260.985118
   12498.8710  1054166.300000  82444.595376  37588.009247
   12503.6400  1058331.100000  83008.541523  37938.548744
   12508.4110  1062587.400000  83566.034884  38264.625616
   12513.5270  1063960.300000  83940.008333  38526.212631
   12518.3070  1070071.600000  84646.506780  38950.325966
   12523.4320  1071455.500000  84994.477474  39202.941549
   12528.2200  1075359.900000  85529.955835  39551.082934
   12533.3520  1078807.900000  86053.992084  39879.759488
   12538.1460  1083184.300000  86641.542662  40257.958377
   12543.2880  1086857.300000  87172.559761  40587.660821
   12548.0900  1090839.800000  87719.141553  40940.907120
   12553.2390  1094966.800000  88294.103041  41307.613208
   12558.3930  1098854.300000  88828.662209  41665.880087
   12563.5510  1102505.300000  89339.740793  42008.673739
   12568.7130  1105825.800000  89831.317808  42365.983536
   12573.5360  1108778.900000  90289.357711  42673.789327
   12578.7070  1113665.400000  90914.001053  43078.158973
   12583.8810  1116547.500000  91361.084279  43402.016972
   12589.0610  1119566.100000  91835.641923  43755.380081
   12594.2440  1122619.100000  92294.792113  44095.305099
   12599.4320  1126065.900000  92826.423267  44474.728667
   12604.9720  1128247.000000  93241.544585  44812.668556
   12610.1680  1131286.600000  93748.142196  45175.113462
   12615.3690  1133905.800000  94205.297059  45518.102868
   12620.5740  1138350.500000  94849.892570  45972.576871
   12625.7840  1143162.800000  95522.047608  46412.595904
   12631.3480  1146534.500000  96078.752472  46842.147883
   12636.5660  1149240.800000  96580.883613  47171.190215
   12642.1370  1152842.500000  97184.565797  47608.771086
   12647.3640  1154266.800000  97585.763421  47923.870290
   12652.9450  1156996.500000  98136.434782  48317.475273
   12658.1840  1159408.900000  98600.623514  48666.601075
   12663.7740  1163477.600000  99229.339366  49103.265038
   12669.0200  1168493.000000  99921.628465  49584.469182
   12674.6200  1172440.900000  100564.276873  50019.128083
   12680.2280  1174703.300000  101041.556635  50392.360391
   12685.8370  1178826.100000  101696.246193  50867.066561
   12691.1020  1180214.500000  102068.533079  51165.341582
   12696.7220  1185291.500000  102809.320462  51678.126913
   12702.3490  1188653.900000  103377.544713  52095.395637
   12707.9790  1192403.900000  103986.349167  52537.223243
   12713.6130  1196057.400000  104596.587485  52981.533413
   12719.2550  1197380.300000  105010.397183  53353.392543
   12724.9010  1198444.800000  105357.675553  53678.749409
   12730.5510  1204805.900000  106198.475542  54238.633738
   12736.2080  1206765.400000  106630.739799  54626.020546
   12741.8680  1209782.400000  107181.620964  55054.978096
   12747.8890  1213231.000000  107799.964347  55547.434297
   12753.5620  1216097.100000  108350.778317  55976.396528
   12759.2370  1218992.600000  108888.133702  56402.882137
   12764.9190  1220540.800000  109313.982880  56794.887802
   12770.9620  1223426.400000  109892.292365  57249.386475
   12776.6540  1226510.600000  110475.138660  57703.423594
   12782.3510  1227590.300000  110868.567273  58091.010142
   12788.4100  1231571.400000  111552.373037  58611.052848
   12794.1190  1235404.100000  112206.778087  59120.663648
   12800.1890  1237241.400000  112703.728388  59566.807805
   12806.2660  1238839.000000  113210.048521  59979.409582
   12811.9890  1242820.300000  113879.003447  60507.596036
   12818.0770  1244291.000000  114340.423395  60911.273271
   12824.1700  1248079.400000  115024.387224  61455.489739
   12829.9100  1252201.100000  115741.720560  62002.156194
   12836.0160  1253330.500000  116194.752835  62423.436330
   12842.1270  1257871.300000  116955.103078  62988.144540
   12848.2440  1259358.600000  117451.070164  63431.426371
   12854.3660  1261399.500000  117974.570599  63898.238714
   12860.4950  1263180.900000  118488.551311  64358.559663
   12866.2690  1266785.800000  119152.967076  64887.357514
   12872.4080  1269234.100000  119743.017626  65387.743109
   12878.5550  1270986.000000  120258.459548  65850.587911
   12885.0690  1272598.500000  120760.488749  66337.991162

