# XDI/1.0
# Column.1: energy eV
# Column.2: i0
# Column.3: itrans
# Column.4: irefer
# Beamline.name: SSRL 2-3
# Beamline.notes: vert slits = 0.6mm
# Detector.I0: N2 15cm
# Detector.I1: Ar 30cm
# Detector.I2: Ar 15cm
# Element.edge: K
# Element.symbol: As
# Mono.d_spacing: 3.13550
# Mono.name: Si(111)
# Mono.notes: unfocused, detuned 75%, clockwise at E=12000eV
# Sample.formula: AsS
# Sample.name: AsS (realgar)
# Sample.prep: powder on tape (5 layers)
# Sample.reference: GaAs powder
# Sample.temperature: 10K
# Scan.start_time: 1997-04-19 17:37:58
# ///
#    Note: mono d_spacing is nominal!
#     exafs to K16, GaAs in IR
#     413  E XMU XMUR I0
#-------------
#   energy   i0   itrans  irefer
   11634.8900  555708.310000  73435.504726  30191.002040
   11644.9080  553685.310000  73489.496619  30398.999384
   11654.9440  549917.310000  73307.499896  30495.999817
   11664.9980  547463.310000  73309.517659  30687.007169
   11675.0700  545058.310000  73297.520367  30860.007185
   11684.8620  542115.310000  73226.525672  31004.012385
   11694.9690  537898.310000  72973.512105  31076.006536
   11705.0930  535275.310000  72935.479850  31254.992164
   11714.9370  532881.310000  72907.514732  31406.004993
   11725.0950  530192.310000  72858.469826  31571.985412
   11734.9740  528032.310000  72875.497763  31752.998919
   11744.8670  525172.310000  72788.532214  31900.013030
   11755.0790  522261.310000  72689.508108  32042.003662
   11765.0090  519761.310000  72622.492432  32200.996103
   11774.9540  516675.310000  72475.505539  32311.003897
   11784.9180  513861.310000  72345.510899  32434.004828
   11794.8960  511681.310000  72323.491242  32607.994548
   11804.8950  509304.310000  72225.465860  32742.983552
   11814.9090  505708.310000  71926.519876  32780.008762
   11824.9400  503649.310000  71786.483941  32879.991524
   11834.9890  500292.310000  71321.480234  32808.989488
   11845.0570  497882.310000  70641.495288  32596.998833
   11845.3610  497938.310000  70634.464694  32597.982301
   11845.9730  497458.310000  70515.514828  32545.006739
   11846.5830  496545.310000  70344.509718  32465.004940
   11846.8890  496256.310000  70285.502013  32437.000024
   11847.4990  497408.310000  70403.518324  32501.009101
   11848.1100  496776.310000  70244.488126  32420.992975
   11848.4150  496886.310000  70244.516443  32414.007104
   11849.0270  496092.310000  70067.496857  32343.999545
   11849.6370  496077.310000  69986.529059  32304.013566
   11849.9420  496284.310000  69970.517038  32293.009032
   11850.5560  495544.310000  69795.516529  32210.006804
   11850.8600  494915.310000  69647.489636  32130.995528
   11851.4710  494989.310000  69567.476494  32094.990744
   11852.0830  495327.310000  69491.523171  32067.010018
   11852.3900  495356.310000  69451.476009  32032.990402
   11853.0000  494553.310000  69214.470436  31914.985077
   11853.6100  494736.310000  69092.481140  31855.992553
   11853.9170  495182.310000  69072.522116  31841.010516
   11854.5290  495657.310000  68949.529517  31768.012290
   11855.1400  495254.310000  68687.510719  31630.004773
   11855.4460  494717.310000  68531.501024  31562.001363
   11856.0580  495256.310000  68372.481508  31454.992876
   11856.3630  494844.310000  68193.495598  31368.998235
   11856.9760  495017.310000  67921.507138  31217.003541
   11857.5880  494473.310000  67501.524033  30992.011443
   11857.8940  494641.310000  67385.500835  30925.001712
   11858.5040  494685.310000  66978.510091  30710.005791
   11859.1180  494459.310000  66436.517160  30405.008938
   11859.4240  494081.310000  66123.492936  30226.998008
   11860.0350  493767.310000  65412.500139  29840.999612
   11860.6470  493906.310000  64653.474262  29413.987995
   11860.9550  493784.310000  64315.509176  29231.003287
   11861.5660  493078.310000  63192.524141  28620.012338
   11861.8720  493406.310000  62662.488109  28314.994146
   11862.4840  493340.310000  61124.527633  27472.011421
   11863.0980  493074.310000  59282.484591  26457.992668
   11863.4030  492541.310000  58384.493672  25974.997358
   11864.0170  492136.310000  55644.527272  24483.013020
   11864.6280  491735.310000  51804.477509  22448.991338
   11864.9350  492055.310000  49947.483771  21467.993013
   11865.5470  491127.310000  44996.485259  18951.994589
   11865.8540  491041.310000  42583.517220  17749.006787
   11866.4670  491570.310000  35523.483373  14335.993190
   11867.0780  491871.310000  28434.497742  11060.998997
   11867.3880  491689.310000  25080.509569  9560.003883
   11867.9990  491256.310000  18553.491788  6721.000369
   11868.6110  491709.310000  13222.497152  4472.997245
   11868.9190  491832.310000  11740.504956  3847.000774
   11869.5320  491541.310000  9079.498728  2694.999409
   11870.1450  490790.310000  8717.504095  2425.001079
   11870.4510  491064.310000  9152.500282  2495.999117
   11871.0640  491185.310000  11115.499326  2992.001226
   11871.3710  491214.310000  12048.504076  3246.000130
   11871.9850  489929.310000  14921.499843  4044.998240
   11872.5990  489634.310000  17894.507217  4898.004153
   11872.9050  489928.310000  19025.497901  5230.997959
   11873.5180  489478.310000  21107.494151  5859.001230
   11874.1330  489464.310000  22395.488855  6283.998918
   11874.4390  489448.310000  22655.504775  6378.001851
   11875.0530  489373.310000  22842.494917  6510.997129
   11875.3580  489799.310000  22761.505089  6523.002237
   11875.9750  489317.310000  22281.509737  6490.004180
   11876.5880  489054.310000  21811.504211  6459.000256
   11876.8940  489402.310000  21669.502799  6454.999011
   11877.5090  489898.310000  21417.489165  6502.994993
   11878.1230  489497.310000  21368.501956  6589.002468
   11878.4300  489155.310000  21398.504714  6631.002812
   11879.0440  488816.310000  21552.499044  6751.000896
   11879.3510  489320.310000  21668.493774  6814.994824
   11879.9660  488785.310000  21898.504662  6936.000796
   11880.5800  488581.310000  22141.505099  7056.999110
   11880.8870  488452.310000  22230.491585  7103.998832
   11881.5000  488631.310000  22430.490982  7196.999750
   11882.1160  488481.310000  22598.492732  7273.999012
   11882.4240  488314.310000  22643.509994  7289.006662
   11883.0370  487340.310000  22745.507822  7335.001877
   11883.6520  488091.310000  22921.503765  7391.003364
   11883.9590  487952.310000  22976.493594  7411.995310
   11884.5740  487299.310000  23078.501978  7438.004004
   11884.8810  487033.310000  23108.500090  7448.997943
   11885.4960  486758.310000  23217.509562  7479.999436
   11886.1100  486441.310000  23311.510632  7515.001758
   11886.4190  486348.310000  23351.496090  7532.997632
   11887.0340  485778.310000  23429.510671  7565.000154
   11887.6480  486233.310000  23560.499752  7613.001965
   11887.9550  486384.310000  23606.499407  7626.996107
   11888.5720  486238.310000  23715.500254  7670.998992
   11888.8790  486093.310000  23761.499466  7686.000839
   11889.4930  486377.310000  23916.501995  7732.998415
   11890.1090  486429.310000  24051.505369  7773.003091
   11890.4170  486197.310000  24104.499617  7789.997424
   11891.0320  486012.310000  24245.498052  7830.997941
   11891.6480  485909.310000  24383.507986  7869.999521
   11891.9560  485939.310000  24463.488472  7893.998124
   11892.5700  485789.310000  24618.495533  7944.000672
   11892.8790  485576.310000  24664.512103  7963.005098
   11893.4950  485427.310000  24813.492424  8012.001096
   11894.1090  485374.310000  24969.507151  8076.998789
   11894.4190  485490.310000  25043.500398  8105.998383
   11895.0350  484829.310000  25156.489394  8167.998448
   11895.6490  484439.060000  25281.265927  8244.766573
   11896.2660  484748.340000  25438.527860  8323.042472
   11896.8810  485367.120000  25609.274039  8406.830692
   11897.4980  484950.440000  25709.554678  8456.156028
   11898.4220  484435.250000  25852.357072  8520.992115
   11899.0380  484648.590000  25969.637616  8560.349952
   11899.6550  485032.440000  26082.426550  8590.223681
   11900.5800  485374.810000  26228.756799  8620.623351
   11901.1950  485297.720000  26284.556418  8628.533484
   11902.1210  485591.090000  26383.897771  8651.977358
   11903.0450  486061.030000  26458.730836  8676.924904
   11903.6620  486094.470000  26483.052172  8688.392920
   11904.5870  486655.410000  26521.912965  8708.393195
   11905.5130  486249.870000  26484.260882  8705.905840
   11906.4380  486954.870000  26502.112569  8717.935448
   11907.3630  487802.370000  26499.486205  8729.484722
   11908.2910  488320.370000  26461.363457  8728.553703
   11909.2150  488676.910000  26383.756992  8710.146020
   11910.1430  488974.970000  26306.637981  8688.247949
   11911.0680  489878.530000  26216.040661  8651.878478
   11912.3030  490404.590000  26044.946167  8587.028445
   11913.2290  491419.220000  25941.385056  8545.702902
   11914.1560  491856.310000  25779.294243  8482.885142
   11915.3920  492579.940000  25561.741530  8406.597062
   11916.3180  493729.090000  25438.682941  8368.820595
   11917.5560  494378.750000  25224.126160  8316.561797
   11918.7930  494912.940000  25007.077088  8279.825293
   11919.7190  495332.620000  24868.538649  8269.611215
   11920.9570  497156.840000  24758.516968  8268.917038
   11922.1930  498279.560000  24637.983208  8255.736442
   11923.4320  499380.810000  24546.982911  8239.082173
   11924.6690  499854.560000  24452.468601  8222.943016
   11925.9080  500873.840000  24418.480740  8217.329295
   11927.1460  502526.620000  24429.993364  8230.227143
   11928.3840  503699.940000  24453.998335  8234.648949
   11929.6230  505114.750000  24509.520433  8252.586210
   11930.8610  506010.090000  24550.558655  8256.044591
   11932.4110  507422.970000  24658.086912  8272.013222
   11933.6510  508922.310000  24801.133860  8299.517431
   11934.8910  510667.220000  24987.711029  8340.541524
   11936.4410  511499.620000  25201.760230  8378.072218
   11937.9920  512531.530000  25456.350264  8440.134387
   11939.2320  514288.970000  25720.421980  8523.706709
   11940.7840  515700.940000  26050.996578  8639.796453
   11942.3360  515781.410000  26318.103587  8749.416844
   11943.5770  516715.370000  26563.714854  8843.548245
   11945.1300  519347.870000  26968.807716  8993.201728
   11946.6840  522486.910000  27392.436384  9150.375630
   11948.2370  524871.440000  27757.563356  9291.066587
   11949.7910  526475.500000  28050.200974  9411.278371
   11951.3460  528345.060000  28332.331064  9522.006496
   11952.8990  530839.120000  28605.986091  9625.261030
   11954.7670  532368.750000  28820.138272  9721.028137
   11956.3220  533664.810000  28961.806515  9798.320028
   11957.8780  534466.440000  29052.976544  9852.122762
   11959.7450  536842.620000  29183.660447  9917.451459
   11961.3010  539786.250000  29335.847368  9960.300361
   11963.1710  542167.440000  29415.533455  9981.664736
   11964.7290  543900.120000  29462.746272  9994.546828
   11966.5980  545032.370000  29444.442641  10002.951379
   11968.4700  547397.060000  29485.671272  10036.881172
   11970.0270  550323.310000  29564.400209  10103.328681
   11971.9000  552293.060000  29568.624357  10163.285961
   11973.7710  554528.370000  29578.388271  10229.778919
   11975.6440  556593.120000  29577.634611  10278.779099
   11977.5190  559121.440000  29607.381186  10321.299727
   11979.3920  561329.250000  29610.636315  10336.337835
   11981.2670  563144.620000  29599.411194  10344.898183
   11983.1410  566055.500000  29654.714858  10370.986314
   11985.0170  566937.870000  29607.500396  10350.581700
   11987.2060  567609.750000  29536.805293  10311.699483
   11989.0830  570437.120000  29592.588579  10305.337286
   11991.2730  575861.060000  29799.911280  10345.497659
   11993.1510  578779.500000  29910.738887  10348.179143
   11995.3440  580414.440000  29961.055852  10321.368936
   11997.2250  582802.940000  30100.901423  10345.091116
   11999.4170  585351.870000  30272.240988  10382.328244
   12001.2990  587666.370000  30467.068802  10442.075746
   12003.4940  589564.440000  30674.448971  10525.354145
   12005.6880  592877.940000  31009.311894  10671.146849
   12007.8860  596040.000000  31366.698692  10819.464483
   12010.0830  597733.560000  31681.569335  10956.294188
   12012.2820  598568.620000  31955.942962  11085.635506
   12014.4810  602958.250000  32453.846008  11289.509788
   12016.6820  607608.370000  32960.258444  11498.901926
   12018.8810  610776.000000  33378.176220  11674.818762
   12021.0830  614021.120000  33772.583185  11843.240998
   12023.6020  616423.810000  34121.535694  12018.194745
   12025.8040  618827.000000  34403.962634  12146.666264
   12028.0080  622867.690000  34721.882946  12299.641562
   12030.5270  624816.870000  34902.365239  12396.158160
   12032.7330  627141.620000  35085.305088  12491.187358
   12035.2570  630777.870000  35300.769834  12598.726936
   12037.7800  633455.620000  35444.742768  12677.793784
   12039.9890  636524.870000  35605.228330  12766.384307
   12042.5140  640025.690000  35760.227644  12847.488133
   12045.0400  643204.000000  35881.718677  12915.109910
   12047.5660  647090.810000  36021.739822  12997.260963
   12050.0960  648752.120000  36034.243775  13025.913275
   12052.6250  652306.000000  36167.277623  13089.099400
   12055.1540  653682.370000  36170.778196  13082.802228
   12057.6880  656662.250000  36279.825200  13105.025822
   12060.2210  662049.690000  36521.371637  13175.757836
   12062.7540  667115.620000  36760.443943  13277.028669
   12065.2880  670143.060000  36907.995655  13353.802984
   12068.1420  673011.000000  37045.047579  13431.096788
   12070.6780  676634.440000  37249.635391  13527.926205
   12073.2180  679672.440000  37433.722760  13581.261017
   12076.0730  683777.940000  37707.319085  13667.123657
   12078.6150  685634.940000  37862.392179  13703.487036
   12081.4730  691272.500000  38261.994853  13841.386171
   12084.3350  693986.560000  38517.111393  13916.797925
   12086.8780  696561.120000  38762.742576  14007.733114
   12089.7420  701324.190000  39141.889962  14156.193734
   12092.6060  703800.810000  39407.508759  14282.162425
   12095.4740  708692.870000  39826.648363  14487.659891
   12098.3400  710632.560000  40077.316581  14636.677016
   12101.2090  714909.690000  40472.479597  14830.208673
   12104.0800  718023.310000  40798.162095  15001.257542
   12106.9520  722428.500000  41203.304241  15199.816466
   12109.8250  724745.190000  41495.008007  15344.914727
   12112.6970  729437.440000  41920.191445  15557.521305
   12115.8940  732968.120000  42285.879335  15758.646653
   12118.7710  737901.370000  42711.114140  15974.306228
   12121.6500  741006.190000  43024.812271  16150.467213
   12124.8500  746010.440000  43444.036594  16368.151986
   12127.7310  747219.250000  43608.786245  16479.367591
   12130.9360  753217.560000  44066.026454  16692.094271
   12133.8190  755130.370000  44253.763109  16780.335751
   12137.0270  758961.690000  44552.011384  16915.099792
   12140.2350  763210.560000  44853.784065  17028.386686
   12143.4450  769433.940000  45251.060288  17171.193815
   12146.3370  771234.810000  45383.830251  17220.514554
   12149.5510  775635.250000  45670.125311  17328.361826
   12152.7650  780650.120000  45961.912285  17452.720860
   12155.9810  783497.560000  46140.216619  17522.604753
   12159.2000  788551.560000  46435.014349  17652.001815
   12162.4210  792163.000000  46653.323997  17758.919180
   12165.6420  795876.000000  46903.129243  17880.350900
   12169.1890  799710.500000  47153.478766  18012.316739
   12172.4150  805009.500000  47512.321556  18178.796339
   12175.6430  808548.060000  47777.657823  18318.790213
   12178.8720  812637.060000  48095.498632  18489.303750
   12182.4260  816653.690000  48415.892872  18631.351475
   12185.6580  819458.750000  48688.753121  18754.903934
   12189.2180  825662.310000  49211.132305  18990.980658
   12192.4520  828493.440000  49510.012355  19155.573524
   12196.0160  832919.060000  49930.421714  19371.694817
   12199.5790  836788.250000  50331.295050  19561.316178
   12202.8220  841764.870000  50790.723186  19783.477576
   12206.3900  845766.060000  51204.621751  20003.142707
   12209.9610  849054.750000  51580.034631  20197.331099
   12213.5340  854179.000000  52061.971765  20448.042849
   12217.1070  858573.690000  52495.450695  20685.289851
   12220.6860  862422.940000  52882.358736  20914.025281
   12224.2630  867061.690000  53310.810148  21169.291717
   12227.8450  871176.000000  53704.780668  21382.085024
   12231.4270  876127.810000  54144.260874  21616.395596
   12235.0130  880397.060000  54530.272723  21816.239207
   12238.9270  882845.940000  54826.722502  21994.572360
   12242.5160  887864.250000  55263.732397  22212.443718
   12246.1080  892258.120000  55648.240664  22409.833609
   12250.0290  893514.500000  55860.223567  22507.726782
   12253.6250  899854.370000  56371.738310  22724.152352
   12257.5500  906188.750000  56882.777642  22937.102998
   12261.1520  908742.690000  57153.291624  23066.558504
   12265.0810  913477.120000  57568.372536  23272.558716
   12269.0160  916025.060000  57842.900432  23429.052741
   12272.6230  921595.560000  58295.941229  23642.070474
   12276.5610  925957.560000  58675.508147  23844.612529
   12280.5020  930391.060000  59066.621946  24030.690696
   12284.4450  933576.060000  59372.160495  24200.254218
   12288.3910  937985.620000  59750.264549  24410.357218
   12292.3380  943568.620000  60203.837213  24658.971542
   12296.2890  947269.250000  60558.956109  24869.117475
   12300.2430  951390.310000  60922.550830  25086.767075
   12304.1980  956101.870000  61345.662389  25324.942153
   12308.1580  960774.000000  61774.286981  25558.637180
   12312.1190  964988.620000  62179.434407  25793.860759
   12316.0840  968737.810000  62552.111752  26017.612105
   12320.3800  972223.440000  62924.252051  26250.862735
   12324.3490  977533.620000  63430.872136  26530.623913
   12328.6520  981822.310000  63899.040456  26803.917305
   12332.6270  985828.560000  64324.749588  27051.746403
   12336.6040  990101.250000  64782.934399  27310.081251
   12340.9150  993467.500000  65207.621014  27574.933370
   12345.2290  999117.250000  65771.797638  27886.300288
   12349.2150  1003524.600000  66247.496941  28141.185576
   12353.5360  1006969.400000  66692.700221  28387.590770
   12357.8590  1010752.700000  67167.438220  28646.531745
   12362.1870  1016942.500000  67776.657812  28972.976642
   12366.1830  1020802.800000  68225.381306  29225.942468
   12370.5150  1024769.700000  68710.648238  29504.440676
   12374.8510  1027791.100000  69094.367507  29745.436202
   12379.1890  1032865.900000  69614.622915  30026.962998
   12383.5320  1037025.400000  70077.424960  30277.025835
   12387.8760  1042084.300000  70580.656602  30551.571396
   12392.5600  1044039.700000  70896.480682  30745.673788
   12396.9110  1048140.700000  71336.784897  30981.288070
   12401.2650  1055052.100000  71959.569644  31329.405475
   12405.6210  1058836.100000  72369.834714  31568.032063
   12410.3170  1063286.600000  72836.700528  31836.217484
   12414.6820  1066430.600000  73183.974041  32051.880741
   12419.0490  1070959.100000  73650.790873  32317.079938
   12423.7550  1074271.300000  74049.134326  32583.803842
   12428.1290  1080545.800000  74624.999337  32924.055567
   12432.8420  1083808.900000  75019.334597  33183.808957
   12437.5600  1088837.500000  75578.200795  33532.093405
   12441.9420  1093532.600000  76064.575124  33829.894092
   12446.6660  1095172.300000  76389.479321  34084.225484
   12451.3950  1099057.400000  76853.820489  34373.045024
   12456.1250  1103800.000000  77399.711330  34724.401428
   12460.5220  1108739.300000  77927.108478  35055.277861
   12465.2610  1109546.900000  78209.022081  35274.679529
   12470.0030  1116970.100000  78946.391269  35695.574966
   12474.7480  1121150.900000  79461.372729  36038.035629
   12479.4980  1124007.100000  79878.788918  36318.986447
   12484.2500  1130165.900000  80549.726571  36717.460875
   12489.0070  1133000.100000  80966.164833  36980.448323
   12494.1070  1138204.900000  81602.153390  37368.980101
   12498.8710  1142882.300000  82160.584837  37706.001918
   12503.6400  1146497.100000  82644.524502  38003.538464
   12508.4110  1151288.400000  83234.001986  38374.609964
   12513.5270  1151051.300000  83474.982624  38574.200712
   12518.3070  1158290.600000  84244.524546  39025.336013
   12523.4320  1158947.500000  84543.445033  39254.926200
   12528.2200  1163344.900000  85095.969214  39598.085422
   12533.3520  1168861.900000  85751.006135  40006.763181
   12538.1460  1171586.300000  86178.516793  40285.947927
   12543.2880  1176184.300000  86759.579034  40678.672336
   12548.0900  1179835.800000  87248.080011  40997.875785
   12553.2390  1185313.800000  87889.103181  41400.610564
   12558.3930  1188708.300000  88386.702523  41743.900064
   12563.5510  1191901.300000  88842.757917  42077.684559
   12568.7130  1197193.800000  89477.356853  42481.003401
   12573.5360  1198713.900000  89810.375708  42743.798094
   12578.7070  1204548.400000  90451.971113  43173.146963
   12583.8810  1207918.500000  90949.090902  43517.023629
   12589.0610  1210729.100000  91397.673045  43840.393530
   12594.2440  1214896.100000  91933.807805  44231.315678
   12599.4320  1217301.900000  92354.379766  44552.707712
   12604.9720  1221004.000000  92893.506915  44949.653400
   12610.1680  1225125.600000  93455.150586  45354.116687
   12615.3690  1227625.800000  93901.310189  45700.106995
   12620.5740  1233400.500000  94617.956016  46167.605290
   12625.7840  1238619.800000  95285.054654  46619.596299
   12631.3480  1239740.500000  95649.776812  46934.164410
   12636.5660  1244437.800000  96303.931224  47349.214992
   12642.1370  1247971.500000  96881.609470  47778.794537
   12647.3640  1251567.800000  97465.774382  48185.877702
   12652.9450  1254984.500000  98033.425877  48591.469990
   12658.1840  1256085.900000  98419.675310  48900.627877
   12663.7740  1258854.600000  98884.404726  49265.298011
   12669.0200  1260751.000000  99344.623834  49596.469618
   12674.6200  1260295.900000  99623.274165  49871.126780
   12680.2280  1261259.300000  99997.575958  50195.372706
   12685.8370  1264334.100000  100530.268313  50579.080371
   12691.1020  1264822.500000  100848.569020  50878.359456
   12696.7220  1264895.500000  101149.314756  51172.126989
   12702.3490  1268420.900000  101724.585583  51598.418355
   12707.9790  1268579.900000  102015.357414  51887.227667
   12713.6130  1269134.400000  102347.549787  52189.512893
   12719.2550  1271952.300000  102869.402127  52611.395628
   12724.9010  1272660.800000  103212.617262  52928.720168
   12730.5510  1276286.900000  103783.425622  53386.610877
   12736.2080  1281333.400000  104482.807198  53860.056341
   12741.8680  1284661.400000  105040.549431  54300.941229
   12747.8890  1286657.000000  105526.875105  54717.389234
   12753.5620  1286758.100000  105826.740522  55038.373032
   12759.2370  1291213.600000  106494.126170  55525.880662
   12764.9190  1294287.800000  107031.893641  55962.843493
   12770.9620  1297646.400000  107646.255700  56445.368493
   12776.6540  1298251.600000  107970.140835  56777.420209
   12782.3510  1299255.300000  108376.527888  57159.993146
   12788.4100  1303084.400000  109017.383223  57656.059444
   12794.1190  1306309.100000  109603.790493  58132.672704
   12800.1890  1307243.400000  109997.641460  58499.764248
   12806.2660  1311500.000000  110698.113643  59037.444746
   12811.9890  1312661.300000  111105.020223  59395.607876
   12818.0770  1318904.000000  111968.364061  60036.239266
   12824.1700  1317037.400000  112151.327667  60301.459005
   12829.9100  1322956.100000  112977.759573  60907.174850
   12836.0160  1323231.500000  113355.752994  61277.438824
   12842.1270  1328124.300000  114126.208149  61853.199349
   12848.2440  1330024.600000  114619.129827  62299.457462
   12854.3660  1334557.500000  115369.619311  62863.264018
   12860.4950  1339693.900000  116175.552883  63492.560021
   12866.2690  1339329.800000  116471.967132  63814.358416
   12872.4080  1339936.100000  116869.999918  64214.735241
   12878.5550  1345917.000000  117730.468216  64880.592636
   12885.0690  1349633.500000  118430.507398  65460.005500

