# XDI/1.0
# Column.1: energy eV
# Column.2: i0
# Column.3: itrans
# Column.4: irefer
# Beamline.name: SSRL 2-3
# Beamline.notes: vert slits = 0.6mm
# Detector.I0: N2 15cm
# Detector.I1: Ar 30cm
# Detector.I2: Ar 15cm
# Element.edge: K
# Element.symbol: As
# Mono.d_spacing: 3.13550
# Mono.name: Si(111)
# Mono.notes: unfocused, detuned 75%, clockwise at E=12000eV
# Sample.formula: AsS
# Sample.name: AsS (realgar)
# Sample.prep: powder on tape (5 layers)
# Sample.reference: GaAs powder
# Sample.temperature: 100K
# Scan.start_time: 1997-04-20 00:46:37
# ///
#    Note: mono d_spacing is nominal!
#     exafs to K16, GaAs in IR
#     413  E XMU XMUR I0
#-------------
#   energy   i0   itrans  irefer
   11634.8900  504067.310000  72392.507809  29517.004197
   11644.9080  501947.310000  72380.516497  29689.007339
   11654.9440  499058.310000  72276.492836  29820.996998
   11664.9980  496615.310000  72217.521914  29982.009014
   11675.0700  494389.310000  72209.475994  30154.989049
   11684.8620  492072.310000  72165.470042  30301.986676
   11694.9690  488449.310000  71947.500942  30390.999621
   11705.0930  486168.310000  71882.502826  30543.001650
   11714.9370  484108.310000  71872.496174  30720.997015
   11725.0950  481986.310000  71858.485888  30894.995447
   11734.9740  479371.310000  71757.506873  31031.002164
   11744.8670  477243.310000  71717.475211  31187.988749
   11755.0790  473894.310000  71504.495521  31268.997834
   11765.0090  471647.310000  71443.468148  31425.984473
   11774.9540  469431.310000  71378.519973  31577.008712
   11784.9180  467326.310000  71325.488805  31728.995593
   11794.8960  465216.310000  71247.482146  31864.992080
   11804.8950  462406.310000  71029.477253  31933.990118
   11814.9090  459604.310000  70800.490147  32003.994517
   11824.9400  457366.310000  70568.482650  32060.993114
   11834.9890  455664.310000  70296.525671  32093.010857
   11845.0570  453145.310000  69471.517378  31791.006861
   11845.3610  452315.310000  69319.518940  31725.009883
   11845.9730  452262.310000  69274.532576  31705.014147
   11846.5830  452796.310000  69296.498454  31710.998532
   11846.8890  452725.310000  69257.508271  31700.002567
   11847.4990  451930.310000  69060.503765  31604.002897
   11848.1100  451579.310000  68936.515533  31547.006910
   11848.4150  451601.310000  68910.511845  31532.004095
   11849.0270  451415.310000  68805.506668  31491.002828
   11849.6370  450623.310000  68592.469708  31383.985839
   11849.9420  450898.310000  68581.501255  31376.999903
   11850.5560  451283.310000  68537.519421  31343.008382
   11850.8600  451345.310000  68485.476483  31332.988889
   11851.4710  450845.310000  68287.469516  31223.986182
   11852.0830  450855.310000  68150.498143  31140.999648
   11852.3900  451125.310000  68117.499656  31131.001334
   11853.0000  451531.310000  68017.479055  31072.988881
   11853.6100  451186.310000  67781.504206  30953.001035
   11853.9170  450766.310000  67603.519518  30868.009167
   11854.5290  451279.310000  67443.516869  30770.008342
   11855.1400  450747.310000  67103.479242  30599.990369
   11855.4460  450248.310000  66914.469589  30493.987425
   11856.0580  450140.310000  66573.482271  30308.992000
   11856.3630  450381.310000  66418.496505  30217.997166
   11856.9760  450121.310000  65986.496606  29976.997100
   11857.5880  449812.310000  65451.499772  29695.000754
   11857.8940  449711.310000  65202.502074  29547.999524
   11858.5040  449680.310000  64584.529977  29216.014715
   11859.1180  449793.310000  63853.485262  28808.992159
   11859.4240  449548.310000  63404.530831  28561.013488
   11860.0350  449606.310000  62383.469797  28001.985915
   11860.6470  449723.310000  61146.494056  27313.998245
   11860.9550  449428.310000  60497.518815  26957.009408
   11861.5660  448706.310000  58650.527889  25953.012091
   11861.8720  448796.310000  57578.494134  25370.998548
   11862.4840  448688.310000  54931.472816  23941.988526
   11863.0980  448452.310000  51495.495799  22120.999116
   11863.4030  448004.310000  49575.504602  21127.002315
   11864.0170  447794.310000  44502.483541  18557.993219
   11864.6280  447904.310000  38130.504920  15442.002254
   11864.9350  447730.310000  34741.504404  13835.002093
   11865.5470  447666.310000  27589.495739  10573.998449
   11865.8540  447331.310000  24462.504233  9194.001916
   11866.4670  447946.310000  18104.497381  6454.001858
   11867.0780  448029.310000  12881.506194  4275.002360
   11867.3880  447497.310000  11024.505046  3508.001586
   11867.9990  447361.310000  8987.498606  2623.999204
   11868.6110  447328.310000  8875.501132  2431.999599
   11868.9190  447521.310000  9308.501819  2514.000117
   11869.5320  446993.310000  11122.494932  2975.998545
   11870.1450  447503.310000  13752.504244  3694.000194
   11870.4510  447137.310000  15193.500362  4095.000046
   11871.0640  446610.310000  17975.494698  4888.998245
   11871.3710  446014.310000  18984.503416  5181.999765
   11871.9850  445858.310000  21098.505550  5818.003787
   11872.5990  446073.310000  22381.490733  6229.999862
   11872.9050  446291.310000  22739.509092  6356.004141
   11873.5180  446170.310000  22900.499902  6480.999486
   11874.1330  445911.310000  22579.492340  6472.996091
   11874.4390  446170.310000  22390.499515  6460.002728
   11875.0530  446671.310000  21936.501834  6440.002960
   11875.3580  445925.310000  21710.509925  6426.001355
   11875.9750  445837.310000  21468.507840  6471.999547
   11876.5880  446090.310000  21455.508530  6570.003862
   11876.8940  446349.310000  21510.492767  6621.996110
   11877.5090  445700.310000  21650.504906  6736.003358
   11878.1230  445569.310000  21885.488964  6865.993943
   11878.4300  445890.310000  22027.506769  6932.004216
   11879.0440  445845.310000  22247.509134  7036.001593
   11879.3510  445153.310000  22306.491610  7073.997516
   11879.9660  445014.310000  22486.506967  7162.001199
   11880.5800  445071.310000  22649.494109  7235.001132
   11880.8870  445237.310000  22729.495014  7266.999050
   11881.5000  444214.310000  22819.492985  7301.998853
   11882.1160  443832.310000  22935.497302  7341.996519
   11882.4240  444078.310000  23001.511261  7358.005622
   11883.0370  444402.310000  23139.503282  7399.002958
   11883.6520  443573.310000  23204.496785  7421.001988
   11883.9590  442915.310000  23236.506035  7430.005344
   11884.5740  443266.310000  23355.505564  7470.999116
   11884.8810  443078.310000  23390.489928  7487.998407
   11885.4960  442627.310000  23464.511465  7516.000359
   11886.1100  443037.310000  23595.499335  7560.996455
   11886.4190  442923.310000  23639.490502  7583.999052
   11887.0340  443010.310000  23755.499057  7629.002043
   11887.6480  443037.310000  23880.494302  7662.995676
   11887.9550  442900.310000  23929.492903  7680.999722
   11888.5720  443251.310000  24077.502551  7725.000600
   11888.8790  443205.310000  24140.504549  7747.003446
   11889.4930  442492.310000  24243.488983  7771.996536
   11890.1090  442876.310000  24411.504599  7823.003195
   11890.4170  442879.310000  24476.495629  7837.996827
   11891.0320  442921.310000  24620.492496  7882.996708
   11891.6480  442423.310000  24741.503538  7925.997178
   11891.9560  442283.310000  24810.492530  7948.996145
   11892.5700  442478.310000  24969.509145  8012.000228
   11892.8790  442223.310000  25018.510746  8031.007449
   11893.4950  441663.310000  25130.489994  8089.992870
   11894.1090  441571.310000  25263.496419  8160.002902
   11894.4190  442186.310000  25369.490969  8214.996366
   11895.0350  442048.310000  25490.508693  8281.003649
   11895.6490  441490.060000  25587.258318  8341.762339
   11896.2660  441507.340000  25702.509808  8393.038775
   11896.8810  441632.120000  25831.281735  8450.834787
   11897.4980  441877.440000  25958.563588  8494.157367
   11898.4220  441419.250000  26065.356725  8516.999472
   11899.0380  441174.590000  26134.641447  8527.350407
   11899.6550  441730.440000  26238.448414  8552.227983
   11900.5800  442187.810000  26352.751778  8578.625490
   11901.1950  441956.720000  26371.554778  8583.536077
   11902.1210  442248.090000  26434.897552  8602.974488
   11903.0450  442645.030000  26478.713927  8621.923142
   11903.6620  443132.470000  26508.057800  8640.398934
   11904.5870  443366.410000  26508.900348  8655.392515
   11905.5130  443414.870000  26474.257160  8653.897807
   11906.4380  443808.870000  26447.112835  8654.929100
   11907.3630  443947.370000  26391.500812  8640.487626
   11908.2910  444463.370000  26328.358925  8628.551483
   11909.2150  444713.910000  26228.751027  8598.142371
   11910.1430  445639.970000  26155.654068  8570.254115
   11911.0680  446395.530000  26047.046863  8525.881312
   11912.3030  446894.590000  25850.960327  8444.030570
   11913.2290  447096.220000  25689.383899  8385.699619
   11914.1560  448015.310000  25551.305365  8338.892435
   11915.3920  448962.940000  25347.734200  8280.591022
   11916.3180  449869.090000  25214.661461  8254.814693
   11917.5560  450195.750000  24996.116884  8219.566646
   11918.7930  450216.940000  24783.064962  8190.824427
   11919.7190  451828.620000  24728.537687  8199.612923
   11920.9570  452936.840000  24622.500755  8192.914454
   11922.1930  453823.560000  24523.981809  8178.734959
   11923.4320  454062.810000  24421.979756  8157.082241
   11924.6690  455333.560000  24399.466060  8148.943193
   11925.9080  456340.840000  24400.460046  8160.316757
   11927.1460  457277.620000  24415.976437  8167.220885
   11928.3840  458419.940000  24459.988585  8186.640870
   11929.6230  459369.750000  24521.528386  8182.587667
   11930.8610  461026.090000  24629.567098  8212.050394
   11932.4110  462142.970000  24778.102566  8234.019587
   11933.6510  463602.310000  24967.153330  8272.519303
   11934.8910  464681.220000  25157.715331  8311.537602
   11936.4410  465192.620000  25385.764302  8366.072645
   11937.9920  467184.530000  25710.341882  8463.132008
   11939.2320  468159.970000  25945.418780  8543.707557
   11940.7840  468364.940000  26221.004246  8649.796359
   11942.3360  469209.410000  26519.098512  8768.415979
   11943.5770  471650.370000  26860.692419  8896.544737
   11945.1300  474464.870000  27281.820905  9051.202117
   11946.6840  476849.910000  27648.425635  9191.368042
   11948.2370  477831.440000  27919.546483  9300.061698
   11949.7910  479362.470000  28198.196827  9409.276210
   11951.3460  481016.030000  28444.322953  9505.005893
   11952.8990  482497.120000  28650.988691  9591.256976
   11954.7670  484987.720000  28892.139573  9701.025204
   11956.3220  486406.840000  29020.816797  9766.316691
   11957.8780  488154.470000  29137.962949  9827.119824
   11959.7450  490028.620000  29247.666642  9863.457808
   11961.3010  491291.280000  29280.834524  9876.292519
   11963.1710  493354.440000  29349.539640  9890.659837
   11964.7290  495501.160000  29418.734369  9914.543255
   11966.5980  497568.340000  29450.441868  9937.951511
   11968.4700  499148.090000  29453.678982  9979.887575
   11970.0270  500828.310000  29461.412249  10034.331345
   11971.9000  503028.090000  29486.632158  10109.292127
   11973.7710  505062.340000  29497.362932  10166.762968
   11975.6440  507664.160000  29540.615900  10211.771532
   11977.5190  509267.470000  29524.379916  10227.297385
   11979.3920  511856.280000  29567.650717  10262.339986
   11981.2670  513832.620000  29582.429006  10271.905739
   11983.1410  515243.470000  29567.699909  10267.972104
   11985.0170  516006.840000  29509.493384  10243.578497
   11987.2060  518336.750000  29558.788995  10229.698706
   11989.0830  522528.120000  29718.590733  10258.337613
   11991.2730  525519.060000  29827.907837  10258.498253
   11993.1510  527693.500000  29931.715064  10259.166747
   11995.3440  528589.440000  29974.050520  10232.367953
   11997.2250  531831.940000  30179.881810  10281.082306
   11999.4170  534103.870000  30382.243220  10341.328404
   12001.2990  536283.370000  30601.092066  10428.075089
   12003.4940  539240.440000  30903.441614  10554.354850
   12005.6880  541918.940000  31240.315778  10695.150699
   12007.8860  543179.000000  31513.685623  10816.458569
   12010.0830  545371.560000  31869.560051  10964.286662
   12012.2820  547792.620000  32259.958448  11129.639610
   12014.4810  551701.250000  32741.837226  11337.509870
   12016.6820  555498.370000  33203.247081  11526.902772
   12018.8810  558183.000000  33585.178904  11684.823530
   12021.0830  559936.120000  33889.583839  11829.243233
   12023.6020  563869.810000  34302.505272  12021.183576
   12025.8040  566321.000000  34570.961105  12144.665930
   12028.0080  569048.690000  34800.891409  12260.650669
   12030.5270  571785.870000  35032.337663  12376.154142
   12032.7330  573819.620000  35191.307147  12466.188957
   12035.2570  576805.870000  35371.760039  12555.725325
   12037.7800  579767.620000  35544.746519  12648.800241
   12039.9890  582226.870000  35677.248288  12718.392610
   12042.5140  584546.690000  35764.209474  12774.482902
   12045.0400  587226.000000  35865.712453  12835.101909
   12047.5660  591255.810000  36031.723775  12932.257434
   12050.0960  593686.120000  36116.244930  12974.913498
   12052.6250  596207.000000  36206.256023  13012.102972
   12055.1540  597527.370000  36226.796880  13003.806084
   12057.6880  600557.250000  36350.827707  13033.017877
   12060.2210  606770.690000  36678.360307  13147.753976
   12062.7540  609715.620000  36824.436191  13216.032181
   12065.2880  612918.060000  37002.972843  13312.803702
   12068.1420  616639.000000  37213.059576  13412.106424
   12070.6780  619795.440000  37412.635244  13487.920244
   12073.2180  622406.440000  37589.709140  13547.260095
   12076.0730  625895.940000  37849.286435  13625.106094
   12078.6150  628522.940000  38075.404670  13686.494271
   12081.4730  632376.500000  38393.030458  13789.396740
   12084.3350  635192.560000  38675.108312  13882.793519
   12086.8780  639748.120000  39052.759374  14023.738999
   12089.7420  642550.190000  39341.892988  14153.202597
   12092.6060  646287.810000  39710.511696  14323.161766
   12095.4740  648653.870000  39985.674251  14474.655829
   12098.3400  652749.560000  40380.319836  14671.671615
   12101.2090  653853.690000  40604.488344  14812.206596
   12104.0800  659227.310000  41094.134842  15032.242688
   12106.9520  661165.500000  41369.305249  15178.822302
   12109.8250  665424.190000  41789.984978  15387.906628
   12112.6970  667905.440000  42090.186200  15548.519213
   12115.8940  673439.120000  42593.880737  15805.647270
   12118.7710  676210.370000  42897.100055  15975.300742
   12121.6500  680535.190000  43293.804115  16181.463080
   12124.8500  683263.440000  43580.050805  16343.157289
   12127.7310  687007.250000  43914.775943  16507.363355
   12130.9360  690656.560000  44236.032920  16662.096704
   12133.8190  693965.370000  44511.743807  16790.328903
   12137.0270  696639.690000  44749.010514  16889.099825
   12140.2350  701746.560000  45123.776973  17031.384911
   12143.4450  705116.940000  45383.048824  17118.190352
   12146.3370  708335.810000  45599.798113  17200.502339
   12149.5510  711409.250000  45810.112421  17280.355947
   12152.7650  715633.120000  46091.872521  17392.706182
   12155.9810  717808.560000  46226.207722  17452.601209
   12159.2000  722338.560000  46525.983834  17586.990431
   12162.4210  725860.000000  46771.318326  17695.917420
   12165.6420  728723.000000  46978.154098  17808.359595
   12169.1890  733643.500000  47331.461189  17978.309721
   12172.4150  737718.500000  47636.311427  18122.792777
   12175.6430  742013.060000  47979.644310  18295.785707
   12178.8720  744965.060000  48232.512070  18427.310269
   12182.4260  749323.690000  48623.893848  18591.352496
   12185.6580  753164.750000  48975.736175  18750.897077
   12189.2180  755761.310000  49284.104189  18910.970413
   12192.4520  761167.440000  49757.010087  19136.571834
   12196.0160  764347.060000  50137.385784  19335.681145
   12199.5790  768548.250000  50565.288641  19556.314872
   12202.8220  772150.870000  50954.697742  19739.467509
   12206.3900  776058.060000  51378.630499  19959.147049
   12209.9610  780736.750000  51858.042065  20192.333954
   12213.5340  784969.000000  52297.011427  20436.058755
   12217.1070  787980.690000  52655.441443  20640.285739
   12220.6860  792692.940000  53123.369422  20899.029731
   12224.2630  796113.690000  53505.850458  21118.309273
   12227.8450  799999.000000  53892.777871  21339.085212
   12231.4270  804379.810000  54321.253442  21552.393079
   12235.0130  808153.060000  54720.229713  21759.222078
   12238.9270  812302.940000  55127.757181  21977.584540
   12242.5160  814089.250000  55359.706173  22123.431677
   12246.1080  819949.120000  55870.208177  22350.821791
   12250.0290  824351.500000  56295.241808  22543.733114
   12253.6250  827997.370000  56652.775384  22689.166822
   12257.5500  832044.750000  57035.804824  22862.113895
   12261.1520  836263.690000  57436.327247  23036.572967
   12265.0810  838217.120000  57681.365130  23179.555460
   12269.0160  843450.060000  58144.930447  23398.064249
   12272.6230  848736.560000  58604.989833  23608.089854
   12276.5610  851729.560000  58912.545148  23785.626237
   12280.5020  855747.060000  59303.589883  23971.677800
   12284.4450  860812.060000  59750.179771  24193.260425
   12288.3910  865168.620000  60160.285442  24427.367543
   12292.3380  869074.620000  60537.862177  24646.980311
   12296.2890  872318.250000  60858.976249  24837.125330
   12300.2430  876644.310000  61272.573856  25066.776759
   12304.1980  881279.870000  61699.711101  25320.963478
   12308.1580  884858.000000  62095.292453  25540.639263
   12312.1190  890044.620000  62566.475299  25793.878499
   12316.0840  894867.810000  63045.078927  26064.598363
   12320.3800  897824.440000  63415.261369  26291.866902
   12324.3490  901227.620000  63797.873311  26513.625114
   12328.6520  905842.310000  64299.074658  26799.931730
   12332.6270  909963.560000  64766.762977  27053.753433
   12336.6040  913270.250000  65178.902741  27296.067358
   12340.9150  917430.500000  65674.572600  27600.912334
   12345.2290  920771.250000  66106.801195  27845.301202
   12349.2150  926118.560000  66689.482779  28147.179692
   12353.5360  931031.370000  67249.727852  28441.603115
   12357.8590  933771.690000  67652.409092  28681.518628
   12362.1870  937517.500000  68135.640004  28939.971151
   12366.1830  941791.810000  68620.425735  29214.961017
   12370.5150  945831.690000  69135.658226  29499.444589
   12374.8510  950170.060000  69622.373854  29780.436335
   12379.1890  953691.940000  70061.659565  30022.977503
   12383.5320  958466.370000  70595.434537  30305.029105
   12387.8760  961397.250000  70977.696582  30529.590543
   12392.5600  966723.690000  71525.477523  30821.673119
   12396.9110  971198.690000  72019.727278  31092.261799
   12401.2650  974436.120000  72403.523493  31315.386719
   12405.6210  979716.120000  72949.823553  31608.028546
   12410.3170  983596.620000  73400.656079  31869.198338
   12414.6820  988247.620000  73904.025141  32143.903112
   12419.0490  991691.190000  74299.837038  32401.099533
   12423.7550  994640.250000  74699.179937  32657.822514
   12428.1290  999293.810000  75201.023370  32949.063527
   12432.8420  1003008.900000  75663.332298  33231.807061
   12437.5600  1006798.500000  76120.207881  33537.096132
   12441.9420  1010937.600000  76626.540315  33855.876758
   12446.6660  1014850.200000  77104.472994  34169.221898
   12451.3950  1017609.400000  77501.820776  34443.042922
   12456.1250  1020905.100000  77957.738500  34740.413580
   12460.5220  1024894.200000  78457.153990  35053.296722
   12465.2610  1028169.900000  78915.030057  35347.681554
   12470.0030  1034120.100000  79576.450349  35749.604252
   12474.7480  1038309.900000  80120.325551  36095.015250
   12479.4980  1039819.100000  80461.759533  36335.972724
   12484.2500  1046092.900000  81159.751671  36743.471191
   12489.0070  1048163.100000  81544.141126  36996.439658
   12494.1070  1053387.900000  82191.083288  37394.948198
   12498.8710  1056377.300000  82651.559443  37681.991155
   12503.6400  1059097.100000  83089.557463  37963.555422
   12508.4110  1062872.400000  83624.984534  38301.602403
   12513.5270  1064780.300000  84022.008105  38569.209075
   12518.3070  1071207.600000  84747.469652  39005.309941
   12523.4320  1073604.500000  85203.452704  39295.930257
   12528.2200  1077609.900000  85755.035910  39639.120108
   12533.3520  1080812.900000  86249.022471  39967.771713
   12538.1460  1083864.300000  86722.554112  40274.962166
   12543.2880  1088733.300000  87341.540805  40677.653571
   12548.0900  1091891.800000  87824.110249  40985.890247
   12553.2390  1095708.800000  88375.142687  41333.629357
   12558.3930  1098495.300000  88828.683769  41653.887986
   12563.5510  1103527.300000  89466.742573  42055.676226
   12568.7130  1106933.800000  89943.359170  42411.002846
   12573.5360  1110471.900000  90453.358223  42756.791108
   12578.7070  1112950.400000  90868.988835  43073.152278
   12583.8810  1117584.500000  91485.083656  43465.018356
   12589.0610  1120919.100000  91980.652200  43827.385107
   12594.2440  1124776.100000  92498.763107  44200.290993
   12599.4320  1128109.900000  93024.402982  44579.720414
   12604.9720  1130701.000000  93476.500518  44927.647988
   12610.1680  1135030.600000  94074.111318  45353.098116
   12615.3690  1137516.800000  94545.284421  45709.096213
   12620.5740  1143407.500000  95289.928040  46178.592190
   12625.7840  1147061.800000  95870.085159  46580.611642
   12631.3480  1149744.500000  96382.728706  46964.139577
   12636.5660  1153665.800000  96984.949216  47368.223033
   12642.1370  1156567.500000  97530.567894  47758.771468
   12647.3640  1160266.800000  98126.774268  48180.874979
   12652.9450  1161887.500000  98560.455063  48530.483044
   12658.1840  1165091.900000  99098.692451  48904.633520
   12663.7740  1168160.600000  99632.324383  49295.256232
   12669.0200  1172528.000000  100288.635216  49742.474241
   12674.6200  1175046.900000  100794.353850  50130.165900
   12680.2280  1178184.300000  101367.528041  50539.348120
   12685.8370  1181599.100000  101965.239862  50978.066395
   12691.1020  1185189.500000  102550.561143  51378.354053
   12696.7220  1189245.500000  103169.302397  51832.120886
   12702.3490  1192436.900000  103728.541346  52278.395999
   12707.9790  1194641.900000  104216.321589  52669.205779
   12713.6130  1195931.400000  104596.550702  52997.512315
   12719.2550  1201693.300000  105373.367558  53532.381071
   12724.9010  1202965.800000  105770.672837  53868.752921
   12730.5510  1205543.900000  106285.419620  54285.606242
   12736.2080  1208391.400000  106814.782796  54714.044562
   12741.8680  1210628.400000  107284.570617  55110.950916
   12747.8890  1216606.000000  108087.954981  55700.431494
   12753.5620  1217525.100000  108455.773325  56053.392318
   12759.2370  1221140.600000  109082.079196  56534.853213
   12764.9190  1224033.800000  109627.918956  56978.857449
   12770.9620  1228273.400000  110327.335297  57510.412730
   12776.6540  1228560.600000  110637.104792  57833.403224
   12782.3510  1233269.300000  111384.579097  58374.017773
   12788.4100  1235486.400000  111907.430671  58819.081507
   12794.1190  1238546.100000  112514.766486  59300.662069
   12800.1890  1242366.400000  113185.631448  59810.756959
   12806.2660  1243588.000000  113628.122030  60216.447467
   12811.9890  1248178.300000  114369.954312  60761.569426
   12818.0770  1250872.000000  114959.418915  61247.270618
   12824.1700  1252004.400000  115401.351568  61653.473238
   12829.9100  1254165.100000  115935.774679  62095.186336
   12836.0160  1258253.500000  116675.657519  62654.388533
   12842.1270  1258331.300000  117005.127324  63016.157207
   12848.2440  1262587.600000  117753.157153  63586.472099
   12854.3660  1261567.500000  118028.518135  63910.212866
   12860.4950  1265846.900000  118757.507661  64494.533181
   12866.2690  1268701.800000  119358.963418  64979.351612
   12872.4080  1271806.100000  119992.026552  65505.748043
   12878.5550  1273635.000000  120527.542571  66002.630406
   12885.0690  1274091.500000  120926.467540  66409.980544

