# XDI/1.0
# Column.1: energy eV
# Column.2: i0
# Column.3: itrans
# Column.4: irefer
# Beamline.name: SSRL 2-3
# Beamline.notes: vert slits = 0.6mm
# Detector.I0: N2 15cm
# Detector.I1: Ar 30cm
# Detector.I2: Ar 15cm
# Element.edge: K
# Element.symbol: As
# Mono.d_spacing: 3.13550
# Mono.name: Si(111)
# Mono.notes: unfocused, detuned 75%, clockwise at E=12000eV
# Sample.formula: AsS
# Sample.name: AsS (realgar)
# Sample.prep: powder on tape (5 layers)
# Sample.reference: GaAs powder
# Sample.temperature: 100K
# Scan.start_time: 1997-04-20 00:46:37
# ///
#    Note: mono d_spacing is nominal!
#     exafs to K16, GaAs in IR
#     413  E XMU XMUR I0
#-------------
#   energy   i0   itrans  irefer
   11634.8900  507191.310000  72867.466938  29700.986766
   11644.9080  504394.310000  72761.525768  29831.011993
   11654.9440  501985.310000  72710.503857  29986.001507
   11664.9980  500000.310000  72726.491899  30177.998079
   11675.0700  497537.310000  72680.530946  30336.012823
   11684.8620  494704.310000  72566.488949  30458.994321
   11694.9690  491409.310000  72383.502382  30567.000309
   11705.0930  489856.310000  72456.479815  30772.991416
   11714.9370  487580.310000  72407.509423  30922.003422
   11725.0950  485183.310000  72347.491323  31075.995687
   11734.9740  482352.310000  72210.522816  31205.010681
   11744.8670  479637.310000  72100.516947  31341.008450
   11755.0790  477091.310000  72004.520239  31472.007443
   11765.0090  475104.310000  71973.527653  31631.013524
   11774.9540  472909.310000  71918.507412  31793.003075
   11784.9180  470253.310000  71774.517742  31915.009200
   11794.8960  467916.310000  71662.489746  32038.995015
   11804.8950  465307.310000  71484.530455  32135.012539
   11814.9090  462932.310000  71320.502929  32223.001979
   11824.9400  460429.310000  71062.469112  32271.985660
   11834.9890  458338.310000  70711.525510  32253.010237
   11845.0570  455694.310000  69909.476473  31977.988665
   11845.3610  455600.310000  69846.495454  31942.998323
   11845.9730  455625.310000  69799.495584  31925.998669
   11846.5830  455984.310000  69795.490456  31924.996779
   11846.8890  455351.310000  69681.525895  31868.011453
   11847.4990  454797.310000  69514.533594  31793.016132
   11848.1100  454115.310000  69355.479270  31713.991399
   11848.4150  454407.310000  69356.505867  31722.003424
   11849.0270  454023.310000  69213.473009  31649.987079
   11849.6370  453623.310000  69054.506359  31571.001966
   11849.9420  453949.310000  69065.514514  31564.006602
   11850.5560  453853.310000  68937.482289  31501.990682
   11850.8600  453927.310000  68883.527778  31485.013638
   11851.4710  453918.310000  68759.523317  31418.011651
   11852.0830  454160.310000  68649.526950  31372.011485
   11852.3900  454219.310000  68599.492934  31330.997504
   11853.0000  454252.310000  68434.480095  31236.990721
   11853.6100  453771.310000  68171.483620  31105.991354
   11853.9170  454160.310000  68113.487062  31068.993909
   11854.5290  454241.310000  67891.481943  30948.990351
   11855.1400  454172.310000  67607.482411  30798.992040
   11855.4460  453782.310000  67430.510239  30712.004053
   11856.0580  453673.310000  67084.522724  30518.011720
   11856.3630  453979.310000  66944.480346  30442.992135
   11856.9760  453518.310000  66468.532727  30179.015854
   11857.5880  453129.310000  65927.492345  29881.995364
   11857.8940  453040.310000  65694.493295  29752.998180
   11858.5040  453328.310000  65096.488594  29420.994235
   11859.1180  453041.310000  64285.513693  28978.005563
   11859.4240  452688.310000  63818.481767  28721.992866
   11860.0350  452985.310000  62811.469786  28166.986388
   11860.6470  452575.310000  61472.515976  27430.007551
   11860.9550  452121.310000  60770.503338  27055.002643
   11861.5660  451890.310000  58947.515098  26051.005685
   11861.8720  451846.310000  57817.476981  25444.990836
   11862.4840  451553.310000  55115.525114  23989.010724
   11863.0980  450875.310000  51392.478382  22031.990852
   11863.4030  450824.310000  49503.516481  21046.006077
   11864.0170  450546.310000  44249.491004  18384.995476
   11864.6280  450790.310000  37868.486931  15290.994905
   11864.9350  450500.310000  34371.501119  13646.000365
   11865.5470  450811.310000  27096.508192  10333.003238
   11865.8540  450600.310000  24100.503104  9017.001185
   11866.4670  451056.310000  17698.505263  6275.004409
   11867.0780  450876.310000  12629.496178  4161.997156
   11867.3880  450906.310000  10883.496721  3431.997934
   11867.9990  450719.310000  8987.500451  2604.000127
   11868.6110  450651.310000  9005.503513  2450.002125
   11868.9190  450642.310000  9490.496416  2551.998865
   11869.5320  449949.310000  11490.503734  3058.002521
   11870.1450  449905.310000  14147.502948  3784.001844
   11870.4510  449639.310000  15602.493294  4194.997433
   11871.0640  448990.310000  18336.494449  4973.000132
   11871.3710  448862.310000  19388.501448  5283.000334
   11871.9850  448647.310000  21383.510293  5882.001399
   11872.5990  448766.310000  22602.494687  6281.999268
   11872.9050  448121.310000  22899.497727  6396.001164
   11873.5180  448718.310000  23026.490613  6511.997983
   11874.1330  449093.310000  22710.507061  6505.003718
   11874.4390  449046.310000  22492.502304  6487.998092
   11875.0530  448712.310000  21998.492921  6458.996385
   11875.3580  448871.310000  21817.496333  6465.001421
   11875.9750  448910.310000  21613.499856  6516.999775
   11876.5880  448861.310000  21595.499870  6607.999454
   11876.8940  448684.310000  21641.495175  6652.997764
   11877.5090  448704.310000  21832.509457  6788.005234
   11878.1230  449019.310000  22090.505338  6920.000857
   11878.4300  448686.310000  22198.506285  6975.004704
   11879.0440  448124.310000  22405.504642  7081.003760
   11879.3510  448192.310000  22492.510873  7123.002982
   11879.9660  448315.310000  22687.492962  7216.000138
   11880.5800  447980.310000  22830.498156  7278.001320
   11880.8870  447612.310000  22882.501190  7302.001424
   11881.5000  447406.310000  23002.505681  7347.999892
   11882.1160  447284.310000  23128.495592  7392.998714
   11882.4240  447137.310000  23171.491969  7403.995068
   11883.0370  446947.310000  23282.493191  7437.997898
   11883.6520  446043.310000  23350.492009  7457.998308
   11883.9590  446113.310000  23412.497899  7477.002513
   11884.5740  446177.310000  23518.501966  7513.004325
   11884.8810  445797.310000  23541.489776  7522.995428
   11885.4960  445612.310000  23632.510176  7560.000935
   11886.1100  446067.310000  23765.497878  7607.996460
   11886.4190  445788.310000  23802.490025  7628.995598
   11887.0340  445795.310000  23911.509223  7664.006590
   11887.6480  446196.310000  24056.494751  7715.999360
   11887.9550  446751.310000  24144.511479  7740.003086
   11888.5720  446358.310000  24253.501898  7772.998639
   11888.8790  446225.310000  24317.493874  7793.998417
   11889.4930  446273.310000  24463.508715  7832.999911
   11890.1090  445983.310000  24592.500280  7870.003678
   11890.4170  445868.310000  24647.504040  7893.002752
   11891.0320  445368.310000  24760.499042  7920.003144
   11891.6480  445613.310000  24931.487380  7974.999277
   11891.9560  445702.310000  25008.487389  8010.997321
   11892.5700  445290.310000  25128.494756  8049.994848
   11892.8790  444575.310000  25157.510166  8073.002474
   11893.4950  444925.310000  25322.502451  8146.003390
   11894.1090  444809.310000  25445.493980  8213.997190
   11894.4190  444831.310000  25526.500087  8258.996835
   11895.0350  444510.310000  25634.503815  8319.001614
   11895.6490  444671.060000  25773.241893  8390.757629
   11896.2660  444705.340000  25901.526509  8451.043337
   11896.8810  444401.120000  26001.275071  8493.834760
   11897.4980  443936.440000  26076.574929  8524.159271
   11898.4220  444250.250000  26238.348656  8562.995151
   11899.0380  444320.590000  26315.637689  8581.350924
   11899.6550  444350.440000  26387.450318  8589.233758
   11900.5800  444620.810000  26496.742650  8617.618812
   11901.1950  444958.720000  26554.560782  8627.532248
   11902.1210  445587.090000  26634.882158  8659.965303
   11903.0450  445625.030000  26654.709681  8671.925541
   11903.6620  445511.470000  26648.050419  8676.393899
   11904.5870  445662.410000  26645.911845  8681.390721
   11905.5130  446387.870000  26650.268824  8701.907354
   11906.4380  446664.870000  26619.115403  8702.937235
   11907.3630  446731.370000  26553.496980  8689.491760
   11908.2910  447363.370000  26499.375659  8672.561339
   11909.2150  448034.910000  26428.769048  8653.147724
   11910.1430  448622.970000  26325.651986  8617.257034
   11911.0680  448474.530000  26172.045895  8548.885218
   11912.3030  449495.590000  26000.949146  8488.030910
   11913.2290  450703.220000  25891.379465  8449.701152
   11914.1560  450865.310000  25717.293063  8383.886983
   11915.3920  451211.940000  25479.728178  8309.589112
   11916.3180  452680.090000  25368.663019  8292.816623
   11917.5560  453699.750000  25195.127827  8270.563426
   11918.7930  454061.940000  24996.070199  8251.826918
   11919.7190  454643.620000  24888.550024  8238.620042
   11920.9570  455611.840000  24770.519567  8229.919381
   11922.1930  456690.560000  24681.995481  8219.743876
   11923.4320  457715.810000  24617.965699  8210.078536
   11924.6690  458776.560000  24582.462794  8202.937273
   11925.9080  459434.840000  24557.470994  8200.327770
   11927.1460  460760.620000  24593.978724  8219.222726
   11928.3840  462081.940000  24645.990613  8230.643776
   11929.6230  462991.750000  24697.529919  8235.583649
   11930.8610  463937.090000  24776.557924  8253.042838
   11932.4110  465005.970000  24920.088474  8273.016910
   11933.6510  466899.310000  25129.152444  8314.521997
   11934.8910  467974.220000  25314.698842  8353.538395
   11936.4410  469084.620000  25579.753985  8418.066572
   11937.9920  470509.530000  25873.343077  8502.134196
   11939.2320  470782.970000  26076.413339  8575.704973
   11940.7840  471406.940000  26362.003512  8690.797546
   11942.3360  472714.410000  26700.102966  8819.413946
   11943.5770  474859.370000  27030.711892  8941.547718
   11945.1300  477033.870000  27411.825138  9087.206040
   11946.6840  479718.910000  27810.435507  9231.368723
   11948.2370  481034.440000  28096.552118  9344.060197
   11949.7910  483080.470000  28399.179228  9458.267666
   11951.3460  484651.030000  28648.328694  9558.005792
   11952.8990  485881.120000  28836.991352  9638.263764
   11954.7670  487475.720000  29019.136279  9734.025042
   11956.3220  488949.840000  29151.807202  9799.319138
   11957.8780  491188.470000  29309.975049  9868.125371
   11959.7450  493366.620000  29422.643024  9912.450059
   11961.3010  494616.280000  29470.839120  9923.297447
   11963.1710  496112.440000  29502.546881  9927.667881
   11964.7290  498667.160000  29588.739279  9962.547970
   11966.5980  500502.340000  29615.452649  9983.954697
   11968.4700  502672.090000  29644.661213  10032.873475
   11970.0270  504447.310000  29660.387291  10085.324973
   11971.9000  506615.090000  29675.640496  10159.289656
   11973.7710  508998.340000  29720.372554  10232.774499
   11975.6440  510961.160000  29716.622800  10267.777356
   11977.5190  512771.470000  29714.384891  10281.295447
   11979.3920  514801.280000  29720.646187  10299.341510
   11981.2670  517018.620000  29752.432380  10318.897153
   11983.1410  518689.470000  29752.714764  10315.982384
   11985.0170  519645.840000  29705.508578  10287.581648
   11987.2060  521679.750000  29727.777969  10273.696529
   11989.0830  525660.120000  29890.593857  10301.338561
   11991.2730  528601.060000  29988.920820  10301.505066
   11993.1510  529377.500000  30005.712732  10271.168423
   11995.3440  531861.440000  30148.042759  10277.366029
   11997.2250  534433.940000  30317.894953  10313.081425
   11999.4170  538251.870000  30602.221687  10401.318848
   12001.2990  540270.370000  30810.073538  10480.073576
   12003.4940  543031.440000  31106.450797  10612.358506
   12005.6880  545798.940000  31452.317416  10752.149264
   12007.8860  547791.000000  31777.669538  10885.447738
   12010.0830  548694.560000  32061.564005  11010.286032
   12012.2820  551646.620000  32480.946638  11187.640701
   12014.4810  554957.250000  32925.850665  11375.513239
   12016.6820  558131.370000  33347.251820  11551.905073
   12018.8810  561535.000000  33771.157347  11736.810568
   12021.0830  563741.120000  34101.594374  11885.250042
   12023.6020  567181.810000  34503.504717  12071.193417
   12025.8040  570206.000000  34793.956192  12212.667089
   12028.0080  571584.690000  34943.891014  12295.651475
   12030.5270  575719.870000  35262.363508  12443.161633
   12032.7330  578625.620000  35466.325572  12542.196393
   12035.2570  580725.870000  35593.777066  12612.732518
   12037.7800  583554.620000  35765.761564  12711.804563
   12039.9890  585840.870000  35883.235180  12774.387629
   12042.5140  588990.690000  36020.217465  12845.484863
   12045.0400  592126.000000  36153.705618  12925.103784
   12047.5660  595213.810000  36268.720861  12997.248556
   12050.0960  598220.120000  36385.224790  13062.908211
   12052.6250  600448.000000  36445.246676  13079.093551
   12055.1540  601563.370000  36448.776201  13073.795498
   12057.6880  604663.250000  36591.819024  13109.021948
   12060.2210  610176.690000  36878.383669  13206.769922
   12062.7540  615086.620000  37138.423347  13322.017311
   12065.2880  618764.060000  37332.006315  13420.803953
   12068.1420  621491.000000  37492.069468  13503.101904
   12070.6780  624232.440000  37665.622145  13564.916615
   12073.2180  626947.440000  37856.727659  13625.263903
   12076.0730  630687.940000  38131.289502  13712.107366
   12078.6150  633197.940000  38344.383934  13770.478680
   12081.4730  636676.500000  38646.015477  13870.394509
   12084.3350  640352.560000  38972.134848  13976.801223
   12086.8780  644059.120000  39297.760131  14096.739410
   12089.7420  646034.190000  39542.871117  14203.187739
   12092.6060  650744.810000  39967.497785  14402.150971
   12095.4740  653513.870000  40271.650385  14568.647046
   12098.3400  656489.560000  40605.307761  14730.671123
   12101.2090  657938.690000  40848.485693  14879.207234
   12104.0800  663342.310000  41335.147273  15107.256052
   12106.9520  664894.500000  41583.330651  15236.827838
   12109.8250  669434.190000  42016.015333  15446.923589
   12112.6970  671799.440000  42318.182651  15616.518677
   12115.8940  677607.120000  42837.875419  15873.644431
   12118.7710  682042.370000  43247.082827  16087.294228
   12121.6500  685485.190000  43585.821133  16265.470621
   12124.8500  687280.440000  43828.023491  16415.148845
   12127.7310  691532.250000  44184.753572  16590.356416
   12130.9360  694778.560000  44495.015697  16742.089467
   12133.8190  698800.370000  44812.768400  16882.338355
   12137.0270  700582.690000  44981.010106  16957.099625
   12140.2350  706640.560000  45424.751101  17124.374106
   12143.4450  709913.940000  45672.060870  17208.195475
   12146.3370  714380.810000  45973.822918  17319.510966
   12149.5510  717425.250000  46186.094181  17406.349632
   12152.7650  721757.120000  46464.876515  17515.708089
   12155.9810  723935.560000  46612.203424  17583.598830
   12159.2000  728932.560000  46937.982892  17716.990908
   12162.4210  732549.000000  47184.301072  17839.910902
   12165.6420  735033.000000  47367.123744  17939.349499
   12169.1890  740402.500000  47758.495018  18123.322727
   12172.4150  743816.500000  48014.323115  18261.798506
   12175.6430  748565.060000  48377.659210  18433.790499
   12178.8720  751778.060000  48656.536021  18573.318236
   12182.4260  755838.690000  49025.863255  18735.340009
   12185.6580  760210.750000  49409.746261  18898.901477
   12189.2180  762887.310000  49726.118940  19065.974890
   12192.4520  767723.440000  50177.994004  19275.565627
   12196.0160  770823.060000  50540.391742  19475.682831
   12199.5790  774918.250000  50976.285782  19684.313311
   12202.8220  779324.870000  51407.701383  19896.467305
   12206.3900  783092.060000  51823.632055  20109.148535
   12209.9610  786459.750000  52219.059099  20316.339121
   12213.5340  791008.000000  52675.006416  20557.056860
   12217.1070  795141.690000  53113.457082  20798.291111
   12220.6860  799183.940000  53537.381634  21044.034684
   12224.2630  801841.690000  53862.860418  21232.312469
   12227.8450  807626.000000  54382.808303  21498.096151
   12231.4270  811290.810000  54764.247976  21716.392103
   12235.0130  815439.060000  55172.226972  21913.221850
   12238.9270  819237.940000  55570.726827  22138.572889
   12242.5160  823052.250000  55945.706066  22335.431764
   12246.1080  826607.120000  56301.237515  22502.833073
   12250.0290  831465.500000  56757.216229  22704.723953
   12253.6250  834365.370000  57057.777794  22836.168116
   12257.5500  840303.750000  57598.782690  23062.103601
   12261.1520  843375.690000  57910.314791  23212.567094
   12265.0810  845678.120000  58172.330132  23353.540835
   12269.0160  850365.060000  58599.885323  23553.045663
   12272.6230  856204.560000  59102.978428  23787.085790
   12276.5610  858308.560000  59346.530549  23934.620371
   12280.5020  865385.060000  59949.621266  24212.689711
   12284.4450  868861.060000  60297.173433  24398.257786
   12288.3910  873008.620000  60686.267069  24606.359598
   12292.3380  877422.620000  61101.888199  24842.991215
   12296.2890  881145.250000  61466.940769  25063.110950
   12300.2430  884502.310000  61804.558584  25258.770078
   12304.1980  888229.870000  62185.669052  25478.946205
   12308.1580  892184.000000  62586.299062  25707.644251
   12312.1190  896392.620000  63003.451396  25950.866728
   12316.0840  900259.810000  63420.071686  26184.596013
   12320.3800  905053.440000  63898.251100  26461.863723
   12324.3490  907478.620000  64223.873737  26669.625781
   12328.6520  911900.310000  64723.067939  26946.929964
   12332.6270  917077.560000  65248.760433  27247.752723
   12336.6040  921384.250000  65737.935176  27508.082176
   12340.9150  925001.500000  66189.600545  27789.925394
   12345.2290  929779.250000  66734.775734  28083.288732
   12349.2150  931938.560000  67082.478840  28291.177014
   12353.5360  937686.370000  67709.705683  28618.593608
   12357.8590  940974.690000  68138.421219  28862.525042
   12362.1870  945836.500000  68709.654533  29167.976759
   12366.1830  948758.810000  69110.426857  29390.962072
   12370.5150  953953.690000  69684.654414  29713.444712
   12374.8510  958131.060000  70185.418407  29994.456296
   12379.1890  961891.940000  70644.631280  30257.966824
   12383.5320  966545.370000  71158.390189  30536.009914
   12387.8760  968806.250000  71496.653435  30722.572454
   12392.5600  972657.690000  71952.502329  30970.684985
   12396.9110  977768.690000  72485.759999  31266.274630
   12401.2650  981274.120000  72901.546274  31516.396988
   12405.6210  985957.120000  73399.848003  31791.039229
   12410.3170  988568.620000  73749.635919  32008.188430
   12414.6820  992847.620000  74225.013171  32270.896861
   12419.0490  997177.190000  74688.824611  32550.094678
   12423.7550  1001570.200000  75183.158331  32851.813455
   12428.1290  1004606.800000  75583.008313  33099.057252
   12432.8420  1009933.900000  76157.317057  33445.801471
   12437.5600  1013748.500000  76630.190103  33761.088982
   12441.9420  1017853.600000  77114.580588  34052.895830
   12446.6660  1022231.300000  77635.443271  34397.210332
   12451.3950  1025258.400000  78064.855140  34677.059450
   12456.1250  1028817.100000  78545.727778  34997.410556
   12460.5220  1033232.200000  79064.124524  35328.285289
   12465.2610  1035466.900000  79449.032472  35585.683749
   12470.0030  1042182.100000  80164.435358  36008.595258
   12474.7480  1047138.900000  80784.318347  36376.012743
   12479.4980  1049645.100000  81188.806446  36658.997128
   12484.2500  1052665.900000  81651.743934  36955.470130
   12489.0070  1054609.100000  82025.194980  37202.462522
   12494.1070  1058866.900000  82597.106785  37553.960791
   12498.8710  1063088.300000  83157.586623  37892.005065
   12503.6400  1067219.100000  83713.526578  38238.542477
   12508.4110  1070230.400000  84188.996632  38540.607719
   12513.5270  1073774.300000  84720.966044  38873.189770
   12518.3070  1079200.600000  85390.500638  39279.323501
   12523.4320  1082060.500000  85855.476157  39591.940421
   12528.2200  1087010.900000  86484.993615  39967.099960
   12533.3520  1088528.900000  86849.994610  40227.761048
   12538.1460  1093165.300000  87457.565663  40596.969131
   12543.2880  1097008.300000  88004.594763  40967.678492
   12548.0900  1101872.800000  88619.112988  41350.890485
   12553.2390  1105586.800000  89165.171894  41706.642710
   12558.3930  1108827.300000  89669.729590  42025.910694
   12563.5510  1112832.300000  90221.762383  42407.683739
   12568.7130  1117233.800000  90800.345242  42784.996318
   12573.5360  1120463.900000  91270.358549  43103.792012
   12578.7070  1124656.400000  91835.951157  43517.134007
   12583.8810  1127732.500000  92324.104249  43862.027061
   12589.0610  1131030.100000  92814.705287  44202.408979
   12594.2440  1134819.100000  93360.797856  44586.308784
   12599.4320  1138354.900000  93882.352475  44958.697231
   12604.9720  1140214.000000  94275.490224  45290.642466
   12610.1680  1144748.600000  94905.183859  45714.134026
   12615.3690  1147061.800000  95342.244863  46064.076535
   12620.5740  1153718.500000  96151.924090  46570.592662
   12625.7840  1156694.800000  96692.119685  46958.630254
   12631.3480  1159518.500000  97212.772944  47346.159696
   12636.5660  1161441.800000  97658.865657  47676.181966
   12642.1370  1166379.500000  98366.547877  48145.760454
   12647.3640  1169186.800000  98886.798203  48531.886882
   12652.9450  1172061.500000  99436.419823  48908.467606
   12658.1840  1173032.900000  99788.694566  49214.637824
   12663.7740  1177999.600000  100491.387233  49694.289378
   12669.0200  1180425.000000  100995.586928  50055.451560
   12674.6200  1182848.900000  101503.281672  50439.128334
   12680.2280  1186089.300000  102071.533043  50852.346748
   12685.8370  1189285.100000  102633.321327  51281.104412
   12691.1020  1193323.500000  103255.505295  51719.327467
   12696.7220  1197170.500000  103866.262576  52149.100598
   12702.3490  1201549.900000  104544.580254  52631.415049
   12707.9790  1206739.900000  105264.339432  53137.218969
   12713.6130  1208059.400000  105665.616796  53495.548748
   12719.2550  1211824.300000  106265.341623  53948.365201
   12724.9010  1213204.800000  106677.656583  54294.744305
   12730.5510  1215828.900000  107191.434714  54712.617242
   12736.2080  1218218.400000  107688.816838  55135.061714
   12741.8680  1222310.400000  108314.617511  55599.978652
   12747.8890  1226904.000000  109022.927270  56137.419366
   12753.5620  1228787.100000  109513.722856  56528.365945
   12759.2370  1231116.600000  109991.032687  56957.834099
   12764.9190  1234347.800000  110568.917287  57410.855888
   12770.9620  1236065.400000  111047.334710  57828.408371
   12776.6540  1239701.600000  111682.160522  58324.432300
   12782.3510  1241263.300000  112140.542715  58723.995797
   12788.4100  1245049.400000  112812.425352  59250.077429
   12794.1190  1247305.100000  113327.808923  59679.685312
   12800.1890  1251911.400000  114059.675688  60242.783085
   12806.2660  1251625.000000  114386.033423  60609.399362
   12811.9890  1257470.300000  115230.939402  61202.563960
   12818.0770  1261326.000000  115943.363656  61742.241725
   12824.1700  1260960.400000  116247.313186  62074.453769
   12829.9100  1264954.100000  116956.739191  62617.163380
   12836.0160  1267697.500000  117554.674690  63130.394531
   12842.1270  1269695.300000  118079.157922  63582.172815
   12848.2440  1270458.600000  118507.140558  63972.468853
   12854.3660  1271473.500000  118939.593088  64404.251185
   12860.4950  1274298.900000  119554.510718  64913.533080
   12866.2690  1278213.800000  120269.001555  65466.372482
   12872.4080  1280987.100000  120860.046006  65977.754461
   12878.5550  1283265.000000  121430.476659  66467.598641
   12885.0690  1284137.500000  121882.512171  66908.008316

